temp,pres,hum,red,green,blue,clear,mag_x,mag_y,mag_z,acc_x,acc_y,acc_z,gyro_x,gyro_y,gyro_z
34.16389083862305,1034.3779296875,25.98094367980957,0,0,0,1,-5.325908184051514,-10.868494987487793,-0.2914592921733856,-0.0014810138382017612,-0.0,0.9811235070228577,0.00014285743236541748,0.0007701311260461807,0.001028597354888916,2024-11-20 01:03:38.586468
34.05555725097656,1034.3740234375,25.07273292541504,0,0,0,1,-15.725611686706543,-32.084251403808594,-0.6988442540168762,-0.004443041514605284,-0.0031359365675598383,0.9779554605484009,0.0013922378420829773,-0.0032018842175602913,-0.00019793957471847534,2024-11-20 01:03:38.637850
34.05555725097656,1034.377685546875,25.07273292541504,36,26,16,74,-21.022817611694336,-42.87809753417969,-0.9926876425743103,-0.0019746851176023483,-0.0014473553746938705,0.9786865711212158,0.0028396770358085632,0.0010306723415851593,0.0003975033760070801,2024-11-20 01:03:38.680996
34.03750228881836,1034.3779296875,25.474035263061523,36,26,16,74,-23.867090225219727,-48.689979553222656,-1.595724105834961,-0.0024683563970029354,-0.0016885813092812896,0.9835605025291443,0.00040206313133239746,0.0016000214964151382,-0.0007334053516387939,2024-11-20 01:03:38.732174
34.03750228881836,1034.377197265625,25.474035263061523,36,26,16,74,-25.22098731994629,-51.33700942993164,-1.9436570405960083,-0.0012341781985014677,0.0016995479818433523,0.9781991243362427,0.0024195536971092224,-0.0005259662866592407,0.0016449540853500366,2024-11-20 01:03:38.775325
34.127777099609375,1034.383056640625,26.32793426513672,36,26,16,74,-25.918153762817383,-52.74791717529297,-1.9032599925994873,-0.008392412215471268,-0.006030647549778223,0.9750310778617859,0.0030455514788627625,0.000635949894785881,0.001963280141353607,2024-11-20 01:03:38.826502
34.03750228881836,1034.38623046875,25.85723304748535,35,26,16,74,-26.105871200561523,-53.69374465942383,-1.5718826055526733,0.00048489184700883925,0.0007283777231350541,0.9828293919563293,-0.008021607995033264,0.006420040037482977,8.947402238845825e-05,2024-11-20 01:03:38.878148
34.03750228881836,1034.39501953125,25.85723304748535,35,26,16,74,-26.310970306396484,-54.10790252685547,-1.3270777463912964,-0.005924055352807045,-0.003377162618562579,0.9840478897094727,0.006148979067802429,-0.0023610666394233704,-0.000795505940914154,2024-11-20 01:03:38.921549
33.929168701171875,1034.3955078125,25.359376907348633,35,26,16,74,-26.297142028808594,-54.14265823364258,-1.2851734161376953,-0.0012341781985014677,0.00048558515845797956,0.9777117371559143,-0.0024342983961105347,0.0018449453637003899,-0.003448404371738434,2024-11-20 01:03:38.965748
33.929168701171875,1034.391845703125,25.359376907348633,35,26,16,74,-26.32400894165039,-53.995662689208984,-1.03732168674469,-0.0019746851176023483,-0.0,0.9791739583015442,-0.0022330954670906067,0.0027189692482352257,-0.001025184988975525,2024-11-20 01:03:39.008877
34.05555725097656,1034.387939453125,27.480546951293945,35,26,16,74,-26.693401336669922,-53.89387512207031,-1.2528597116470337,-0.0014810138382017612,-0.0004824517818633467,0.981610894203186,-0.005884677171707153,0.0029985997825860977,0.0001866370439529419,2024-11-20 01:03:39.060019
33.983333587646484,1034.381591796875,25.733524322509766,35,26,16,74,-26.86466407775879,-54.19060134887695,-1.1203093528747559,-0.0009873425588011742,-0.0,0.9794176816940308,-0.0004329010844230652,0.0008628200739622116,0.0001420527696609497,2024-11-20 01:03:39.111153
33.983333587646484,1034.383544921875,25.733524322509766,35,26,16,74,-26.827634811401367,-54.176910400390625,-0.8888719081878662,-0.005924055352807045,-0.005065743811428547,0.9794176816940308,0.003262817859649658,-0.00011550448834896088,0.0028977543115615845,2024-11-20 01:03:39.154232
34.10972213745117,1034.37890625,25.938701629638672,35,26,16,74,-26.56892204284668,-54.21002960205078,-1.0167760848999023,-0.0007405069191008806,-0.0,0.9789302349090576,-0.0003956109285354614,0.00018673669546842575,0.0010472536087036133,2024-11-20 01:03:39.205316
34.10972213745117,1034.379638671875,25.938701629638672,35,26,16,74,-26.698726654052734,-54.12160110473633,-1.055283546447754,-0.005183548666536808,-0.004100840073078871,0.9806361198425293,0.0016698986291885376,0.0004780329763889313,0.0022417083382606506,2024-11-20 01:03:39.248370
34.03750228881836,1034.37939453125,27.248212814331055,35,26,16,74,-26.70882225036621,-54.286048889160156,-1.310120940208435,-0.0007405069191008806,0.0007283777231350541,0.9799050092697144,-0.0017262771725654602,0.0019761021248996258,-0.0008221268653869629,2024-11-20 01:03:39.299524
34.10972213745117,1034.37939453125,25.386533737182617,35,26,16,74,-26.876033782958984,-54.645633697509766,-1.000198245048523,-0.002715192036703229,-0.0009649035637266934,0.9779554605484009,0.002838216722011566,-0.0028257155790925026,-0.00021600723266601562,2024-11-20 01:03:39.343639
34.10972213745117,1034.38037109375,25.386533737182617,35,26,16,74,-26.634004592895508,-54.51435470581055,-0.7125581502914429,-0.0037025348283350468,-0.00024122589093167335,0.9799050092697144,-0.0026825517416000366,0.0029346030205488205,-0.00021522492170333862,2024-11-20 01:03:39.386692
34.00138854980469,1034.382080078125,25.03954315185547,35,26,16,74,-26.534912109375,-54.42194366455078,-0.7219774127006531,-0.0017278495943173766,0.00048558515845797956,0.9799050092697144,0.0014935433864593506,0.0020191832445561886,-0.0010755062103271484,2024-11-20 01:03:39.434314
34.00138854980469,1034.380126953125,25.03954315185547,35,26,16,74,-26.71466636657715,-54.4712028503418,-0.8518972396850586,-0.0037025348283350468,-0.002894710749387741,0.9784428477287292,-3.1694769859313965e-05,-0.0013541029766201973,-0.0010274052619934082,2024-11-20 01:03:39.477728
34.073612213134766,1034.383544921875,26.62664794921875,35,26,16,74,-26.82870101928711,-54.50780487060547,-1.0700297355651855,-0.0009873425588011742,0.0012139629106968641,0.9784428477287292,0.0025776922702789307,-0.0004009595140814781,-0.00040572136640548706,2024-11-20 01:03:39.528913
34.03750228881836,1034.37890625,26.255517959594727,35,26,16,74,-26.802082061767578,-54.46477127075195,-1.3640260696411133,-0.004936712794005871,-0.0038596142549067736,0.9781991243362427,0.00347176194190979,-0.001017007976770401,-0.000696428120136261,2024-11-20 01:03:39.580046
34.03750228881836,1034.37890625,26.255517959594727,35,26,16,74,-26.674396514892578,-54.30192947387695,-1.5142840147018433,-0.00024683563970029354,0.0007283777231350541,0.9789302349090576,-0.000514008104801178,0.0007998794317245483,0.00017903000116348267,2024-11-20 01:03:39.623120
34.00138854980469,1034.37890625,26.336986541748047,35,26,16,74,-26.73345184326172,-54.4222297668457,-1.334507703781128,-0.004443041514605284,-0.002171033062040806,0.9789302349090576,0.0023040026426315308,-0.0028433678671717644,0.00017537176609039307,2024-11-20 01:03:39.667217
34.00138854980469,1034.377685546875,26.336986541748047,35,26,16,74,-26.72643280029297,-54.38999557495117,-1.2155938148498535,-0.0017278495943173766,0.0007283777231350541,0.9791739583015442,0.00032278895378112793,0.0016868552193045616,-6.83516263961792e-05,2024-11-20 01:03:39.717258
34.019447326660156,1034.3759765625,25.56153678894043,35,26,16,74,-26.4851131439209,-54.2535514831543,-1.2562549114227295,-0.0024683563970029354,-0.0019298071274533868,0.9796612858772278,0.0030497685074806213,0.0004420643672347069,0.0011163875460624695,2024-11-20 01:03:39.761428
34.019447326660156,1034.374755859375,25.56153678894043,35,26,16,74,-26.475975036621094,-54.13277053833008,-1.458660364151001,-0.003208863316103816,-0.004100840073078871,0.9781991243362427,0.0015229061245918274,9.965989738702774e-05,0.0010413601994514465,2024-11-20 01:03:39.805375
34.00138854980469,1034.373291015625,27.531841278076172,35,26,16,74,-25.865415573120117,-53.818721771240234,-1.481728196144104,-0.002221520757302642,-0.0016885813092812896,0.9791739583015442,0.008724048733711243,-0.0026426250115036964,0.0013298168778419495,2024-11-20 01:03:39.849051
33.929168701171875,1034.375732421875,26.813720703125,35,26,16,74,-25.98663330078125,-54.18642807006836,-1.9638193845748901,-0.0029620276764035225,-0.002412258880212903,0.9772243499755859,-0.0003381967544555664,0.0006368346512317657,0.0013240277767181396,2024-11-20 01:03:39.896647
33.929168701171875,1034.372314453125,26.813720703125,35,26,16,74,-26.27610206604004,-54.07035446166992,-1.7396671772003174,-0.0017278495943173766,-0.0004824517818633467,0.9796612858772278,0.0035969316959381104,-0.002383013255894184,-0.0023050084710121155,2024-11-20 01:03:39.939763
33.91111373901367,1034.369140625,26.107669830322266,35,26,16,74,-26.40619659423828,-53.89958572387695,-1.631035327911377,-0.003949370235204697,-0.004100840073078871,0.9789302349090576,0.00607619434595108,-0.0036461493000388145,-0.0007895827293395996,2024-11-20 01:03:39.983876
33.91111373901367,1034.370849609375,26.107669830322266,35,26,16,74,-26.381793975830078,-53.640769958496094,-1.9458644390106201,-0.0017278495943173766,0.00024279257922898978,0.9808798432350159,0.0011999458074569702,0.00032866280525922775,7.551908493041992e-05,2024-11-20 01:03:40.026913
34.00138854980469,1034.37109375,26.05034065246582,35,26,16,74,-26.40178108215332,-53.72593307495117,-1.6921838521957397,-0.0034556991886347532,-0.002412258880212903,0.9794176816940308,0.0008999556303024292,-0.0015093609690666199,-0.0014247596263885498,2024-11-20 01:03:40.071016
34.00138854980469,1034.369384765625,26.05034065246582,35,26,16,74,-26.4521541595459,-53.959678649902344,-1.1941092014312744,-0.0012341781985014677,0.00048558515845797956,0.9786865711212158,0.002046443521976471,-0.00264060590416193,0.00015687942504882812,2024-11-20 01:03:40.114053
34.03750228881836,1034.36669921875,26.104652404785156,35,26,16,74,-26.50118637084961,-54.256629943847656,-0.8736748695373535,-0.003208863316103816,-0.002412258880212903,0.9779554605484009,0.0013437122106552124,-0.0004970859736204147,0.0014602318406105042,2024-11-20 01:03:40.165178
34.10972213745117,1034.3671875,25.606796264648438,35,26,16,74,-26.484163284301758,-54.47612380981445,-1.1058558225631714,-0.0014810138382017612,-0.00024122589093167335,0.9794176816940308,0.0010122060775756836,0.0004483060911297798,-0.0016004368662834167,2024-11-20 01:03:40.209266
34.10972213745117,1034.36083984375,25.606796264648438,35,26,16,74,-26.32976722717285,-54.426185607910156,-1.329883098602295,-0.0017278495943173766,-0.0019298071274533868,0.9791739583015442,-0.00026457756757736206,-0.00010445434600114822,0.001811973750591278,2024-11-20 01:03:40.259298
34.10972213745117,1034.357421875,25.362394332885742,35,26,16,74,-26.34206199645996,-54.19644546508789,-1.2897653579711914,-0.0019746851176023483,-0.0012061294401064515,0.9786865711212158,-0.0020528212189674377,0.0017021801322698593,-0.0008704513311386108,2024-11-20 01:03:40.303385
34.10972213745117,1034.359619140625,25.362394332885742,35,26,16,74,-26.300718307495117,-54.29627990722656,-1.1504625082015991,-0.002221520757302642,0.00024279257922898978,0.9784428477287292,-0.00031957030296325684,0.0007849223911762238,0.00036498159170150757,2024-11-20 01:03:40.346417
34.05555725097656,1034.36181640625,25.615848541259766,35,26,16,74,-26.212474822998047,-54.54345703125,-0.9766611456871033,-0.002715192036703229,-0.0009649035637266934,0.9781991243362427,0.00353945791721344,0.0013946881517767906,-0.0014439299702644348,2024-11-20 01:03:40.394361
34.073612213134766,1034.36083984375,27.015880584716797,35,26,16,74,-26.214279174804688,-54.55820846557617,-1.2444865703582764,-0.0009873425588011742,0.00048558515845797956,0.9779554605484009,0.001958034932613373,0.00020946655422449112,-0.0005467385053634644,2024-11-20 01:03:40.438602
34.073612213134766,1034.36279296875,27.015880584716797,35,26,16,74,-26.589040756225586,-54.94449234008789,-1.6567044258117676,-0.004196206107735634,-0.002894710749387741,0.9799050092697144,0.0029486864805221558,-0.0007276451215147972,0.00034089386463165283,2024-11-20 01:03:40.488684
33.94722366333008,1034.362548828125,25.71541976928711,35,26,16,74,-26.668228149414062,-54.59562301635742,-1.3102003335952759,-0.002715192036703229,-0.0016885813092812896,0.9791739583015442,0.007272057235240936,-0.002593543380498886,-0.0020683109760284424,2024-11-20 01:03:40.532825
33.94722366333008,1034.358154296875,25.71541976928711,35,26,16,74,-26.598024368286133,-54.541988372802734,-1.2515695095062256,-0.002715192036703229,-0.0016885813092812896,0.9794176816940308,-0.0033449456095695496,0.0016299746930599213,0.002533338963985443,2024-11-20 01:03:40.582920
34.073612213134766,1034.362060546875,26.19818878173828,35,26,16,74,-26.595046997070312,-54.68031311035156,-0.8190309405326843,-0.0012341781985014677,-0.06151260435581207,0.9813672304153442,-0.003920130431652069,0.002855110913515091,-0.0005122348666191101,2024-11-20 01:03:40.627071
34.073612213134766,1034.353271484375,26.19818878173828,35,26,16,74,-26.4632625579834,-54.53776550292969,-1.3161067962646484,-0.0029620276764035225,-0.0007236776873469353,0.9777117371559143,-0.0030059814453125,-0.0008193729445338249,0.0015901997685432434,2024-11-20 01:03:40.677336
34.00138854980469,1034.35205078125,24.973161697387695,35,26,16,74,-26.337045669555664,-54.43145751953125,-1.4698691368103027,-0.002715192036703229,0.00048558515845797956,0.9774680733680725,0.0014179125428199768,0.00039191078394651413,-0.0032083094120025635,2024-11-20 01:03:40.728563
34.073612213134766,1034.349853515625,25.94775390625,35,26,16,74,-26.373056411743164,-54.377647399902344,-0.8824570178985596,-0.002221520757302642,-0.06078892573714256,0.9777117371559143,-0.0017218366265296936,0.0004366571083664894,-0.00046196579933166504,2024-11-20 01:03:40.772744
34.073612213134766,1034.3515625,25.94775390625,35,26,16,74,-26.309757232666016,-54.29998779296875,-0.7660583853721619,-0.002715192036703229,-0.0014473553746938705,0.9767369627952576,0.0028531327843666077,-0.0007915748283267021,-0.00044386088848114014,2024-11-20 01:03:40.822807
33.983333587646484,1034.3486328125,26.611560821533203,35,26,16,74,-26.25598907470703,-54.433738708496094,-1.1879061460494995,-0.0029620276764035225,-0.0007236776873469353,0.9772243499755859,0.001265786588191986,0.00038376543670892715,-0.00010153651237487793,2024-11-20 01:03:40.866913
33.983333587646484,1034.3505859375,26.611560821533203,35,26,16,74,-26.296415328979492,-54.45978927612305,-0.8858422636985779,-0.002715192036703229,-0.002171033062040806,0.9791739583015442,0.0014933273196220398,-0.0020279856398701668,0.0014048218727111816,2024-11-20 01:03:40.917455
34.03750228881836,1034.347412109375,27.23312759399414,35,26,16,74,-26.51552963256836,-54.926414489746094,-1.1175535917282104,-0.0024683563970029354,-0.0012061294401064515,0.9794176816940308,-5.3025782108306885e-05,-0.001356787048280239,-0.00039142370223999023,2024-11-20 01:03:40.961032
34.00138854980469,1034.350341796875,26.216293334960938,35,26,16,74,-26.50078582763672,-55.02030944824219,-0.9113767147064209,-0.0029620276764035225,-0.0004824517818633467,0.9786865711212158,0.0012054666876792908,-0.000743422657251358,-0.0004123076796531677,2024-11-20 01:03:41.005123
34.00138854980469,1034.34765625,26.216293334960938,35,26,16,74,-26.551530838012695,-55.01220703125,-1.0565903186798096,-0.002221520757302642,-0.0014473553746938705,0.9779554605484009,0.0038383081555366516,-0.0016371514648199081,0.0008291825652122498,2024-11-20 01:03:41.048136
34.019447326660156,1034.34619140625,27.027950286865234,35,26,16,74,-26.768512725830078,-55.11737060546875,-1.0411038398742676,-0.0029620276764035225,-0.0019298071274533868,0.9803923964500427,0.0014209896326065063,-0.00013447925448417664,0.0017189159989356995,2024-11-20 01:03:41.099201
34.019447326660156,1034.34521484375,27.027950286865234,35,26,16,74,-26.878313064575195,-55.14669418334961,-1.7453975677490234,-0.0019746851176023483,-0.0014473553746938705,0.9791739583015442,0.0010959208011627197,-0.0016444502398371696,0.0010626167058944702,2024-11-20 01:03:41.142232
34.00138854980469,1034.349609375,26.343021392822266,35,26,16,74,-26.843225479125977,-54.90586853027344,-1.6609059572219849,-0.0012341781985014677,-0.00024122589093167335,0.9799050092697144,0.0019723474979400635,-0.0013474896550178528,-0.0007669627666473389,2024-11-20 01:03:41.186351
34.019447326660156,1034.34814453125,26.01413345336914,35,26,16,74,-26.611482620239258,-54.70830154418945,-0.983198881149292,-0.0019746851176023483,-0.0,0.9789302349090576,-0.0016048923134803772,0.0007567321881651878,-0.0013896822929382324,2024-11-20 01:03:41.233939
34.019447326660156,1034.352783203125,26.01413345336914,35,26,16,74,-26.44112777709961,-54.65941619873047,-0.8133633732795715,-0.003208863316103816,-0.0016885813092812896,0.9808798432350159,0.0016780421137809753,-0.00046692509204149246,-0.000414922833442688,2024-11-20 01:03:41.278266
34.00138854980469,1034.351318359375,26.243450164794922,35,26,16,74,-26.47067642211914,-54.75426483154297,-0.7758387327194214,-0.002221520757302642,-0.00024122589093167335,0.9796612858772278,-0.0034656599164009094,0.0010478813201189041,-0.001290448009967804,2024-11-20 01:03:41.322617
34.00138854980469,1034.351806640625,26.243450164794922,35,26,16,74,-26.419931411743164,-54.955440521240234,-0.6284247636795044,-0.0017278495943173766,-0.002171033062040806,0.9784428477287292,0.0020509064197540283,0.00011522043496370316,0.00048532336950302124,2024-11-20 01:03:41.365907
34.019447326660156,1034.352783203125,25.320152282714844,35,26,16,74,-26.2747802734375,-54.9913444519043,-0.5776768326759338,-0.0029620276764035225,-0.0014473553746938705,0.9781991243362427,-0.002187758684158325,-0.00018701516091823578,0.0013780593872070312,2024-11-20 01:03:41.413539
34.019447326660156,1034.35693359375,25.320152282714844,35,26,16,74,-26.294113159179688,-54.92646026611328,-0.3602012097835541,-0.0017278495943173766,0.00024279257922898978,0.9789302349090576,-0.002114035189151764,0.0001375284045934677,0.002010427415370941,2024-11-20 01:03:41.456752
33.96527862548828,1034.35205078125,24.644275665283203,35,26,16,74,-26.50279998779297,-54.736576080322266,-0.7670323252677917,-0.0024683563970029354,-0.0014473553746938705,0.9801487326622009,-0.0028802603483200073,-0.001095890998840332,0.0025412961840629578,2024-11-20 01:03:41.500963
33.94722366333008,1034.35205078125,26.35207176208496,35,26,16,74,-26.618200302124023,-54.55378341674805,-1.268678903579712,-0.0014810138382017612,-0.0004824517818633467,0.9789302349090576,-0.0013062059879302979,0.0007355939596891403,6.774812936782837e-05,2024-11-20 01:03:41.545135
33.94722366333008,1034.35107421875,26.35207176208496,35,26,16,74,-26.697187423706055,-54.56154251098633,-1.2454891204833984,-0.0024683563970029354,-0.0031359365675598383,0.9781991243362427,0.0030975937843322754,-0.0005019865930080414,-0.0007462501525878906,2024-11-20 01:03:41.588965
34.05555725097656,1034.35107421875,27.558996200561523,35,26,16,74,-26.675085067749023,-54.61738204956055,-1.2295687198638916,-0.002221520757302642,0.0009711703169159591,0.9786865711212158,-0.005629919469356537,0.0018601925112307072,-0.0004389062523841858,2024-11-20 01:03:41.636683
34.05555725097656,1034.34765625,27.558996200561523,35,26,16,74,-26.58124351501465,-54.61798095703125,-1.3275007009506226,-0.0019746851176023483,0.00024279257922898978,0.9791739583015442,-0.0007558688521385193,0.0009218249469995499,0.0007440149784088135,2024-11-20 01:03:41.679764
33.96527862548828,1034.345458984375,24.855485916137695,35,26,16,74,-26.60566520690918,-54.6539421081543,-1.3176840543746948,-0.002221520757302642,-0.0009649035637266934,0.9781991243362427,-0.0048325881361961365,0.0036238161846995354,0.0024889111518859863,2024-11-20 01:03:41.723928
33.96527862548828,1034.344482421875,24.855485916137695,35,26,16,74,-26.55840301513672,-54.86408615112305,-1.4066593647003174,-0.047886114567518234,-0.05258724465966225,1.0374175310134888,0.12772518396377563,-0.0867842435836792,0.006154105067253113,2024-11-20 01:03:41.774015
33.96527862548828,1034.340087890625,25.851198196411133,35,26,16,74,-26.734580993652344,-54.982181549072266,-1.70658278465271,-0.029373442754149437,0.052200403064489365,0.9331152439117432,0.00891188532114029,-0.009204353205859661,-0.0014817118644714355,2024-11-20 01:03:41.818153
33.8569450378418,1034.340576171875,26.071462631225586,35,26,16,74,-26.911930084228516,-54.96831130981445,-1.870058536529541,0.0021820133551955223,-0.0012061294401064515,0.9996444582939148,-0.016501791775226593,0.008749435655772686,-0.0008922889828681946,2024-11-20 01:03:41.862253
33.8569450378418,1034.337890625,26.071462631225586,35,26,16,74,-26.816545486450195,-54.511077880859375,-1.6535840034484863,-0.0024683563970029354,-0.015920909121632576,0.9867285490036011,0.03018840402364731,-0.019394049420952797,0.0015695691108703613,2024-11-20 01:03:41.905275
33.929168701171875,1034.343994140625,25.914562225341797,35,26,16,74,-26.44365692138672,-54.36363983154297,-1.7174254655838013,-0.008886083029210567,-0.0009649035637266934,0.9557790756225586,0.025833114981651306,-0.021205991506576538,0.0011912807822227478,2024-11-20 01:03:41.956488
33.929168701171875,1034.34716796875,25.914562225341797,35,26,16,74,-26.39264488220215,-54.10798263549805,-1.5506103038787842,-0.02098102867603302,-0.011578842997550964,0.974299967288971,-0.0109926238656044,0.0011754008010029793,0.0006420686841011047,2024-11-20 01:03:42.002982
33.94722366333008,1034.3466796875,26.29474449157715,35,26,16,74,-26.82234764099121,-54.19148635864258,-1.1407489776611328,0.01575898379087448,0.010440080426633358,0.9923335909843445,-0.011565074324607849,0.008539955131709576,-0.0021267682313919067,2024-11-20 01:03:42.051412
33.94722366333008,1034.3486328125,26.29474449157715,35,26,16,74,-26.735454559326172,-54.443572998046875,-1.3747540712356567,-0.014810139313340187,-0.012543746270239353,0.9799050092697144,0.006147898733615875,-0.002497628331184387,0.0027679726481437683,2024-11-20 01:03:42.100595
33.875,1034.34814453125,26.424488067626953,35,26,16,74,-26.464580535888672,-54.72719955444336,-1.4917731285095215,0.0016971214208751917,0.004127473570406437,0.9721066951751709,-0.007432729005813599,0.0011337259784340858,-0.004195801913738251,2024-11-20 01:03:42.147568
33.929168701171875,1034.34912109375,26.09560203552246,35,26,16,74,-26.44994354248047,-54.45975875854492,-1.0176644325256348,-0.010120261460542679,-0.010131487622857094,0.9747873544692993,0.007250376045703888,-0.006170040927827358,0.0009171217679977417,2024-11-20 01:03:42.198735
33.929168701171875,1034.351806640625,26.09560203552246,35,26,16,74,-26.653236389160156,-54.7062873840332,-0.29483190178871155,-0.0029620276764035225,-0.005065743811428547,0.9818546175956726,-0.004593886435031891,0.001987977884709835,-0.0011002421379089355,2024-11-20 01:03:42.245341
33.94722366333008,1034.34765625,25.802921295166016,35,26,16,74,-26.471332550048828,-54.69658279418945,-0.7486073970794678,0.0014546754537150264,0.0007283777231350541,0.9859974384307861,0.011148341000080109,-0.002970145083963871,-0.001730993390083313,2024-11-20 01:03:42.290102
33.91111373901367,1034.345703125,25.247737884521484,35,26,16,74,-26.267009735107422,-54.60329055786133,-0.5459250807762146,-0.010860768146812916,-0.011096390895545483,0.9781991243362427,-0.0002866014838218689,-0.0018515698611736298,0.0007313936948776245,2024-11-20 01:03:42.344219
33.91111373901367,1034.343505859375,25.247737884521484,35,26,16,74,-26.379728317260742,-54.43594741821289,-1.3424142599105835,-0.0,-0.0038596142549067736,0.9786865711212158,-0.0026895031332969666,0.003525163047015667,-0.001942373812198639,2024-11-20 01:03:42.404617
33.91111373901367,1034.337890625,26.05939292907715,35,26,16,74,-26.173952102661133,-54.584651947021484,-0.9708106517791748,0.0007273377268575132,0.0036418887320905924,0.9803923964500427,0.005285784602165222,-0.0015543391928076744,-0.0018904805183410645,2024-11-20 01:03:42.461424
33.8569450378418,1034.33642578125,26.05335807800293,35,26,16,74,-25.85965919494629,-54.560585021972656,-1.2852964401245117,-0.010860768146812916,-0.00989026203751564,0.981610894203186,0.007400438189506531,-0.003408856689929962,0.0035437792539596558,2024-11-20 01:03:42.511766
33.8569450378418,1034.335693359375,26.05335807800293,35,26,16,74,-25.721235275268555,-54.34723663330078,-1.3990904092788696,0.0014546754537150264,0.0024279258213937283,0.9801487326622009,-0.0005644634366035461,0.0023161182180047035,0.0016710162162780762,2024-11-20 01:03:42.555756
33.875,1034.33349609375,26.083532333374023,35,26,16,74,-25.850345611572266,-54.37095260620117,-1.1903513669967651,-0.004936712794005871,-0.0045832921750843525,0.9799050092697144,-0.0008368939161300659,-0.0026171160861849785,0.0012992769479751587,2024-11-20 01:03:42.600121
33.875,1034.3349609375,26.083532333374023,35,26,16,74,-25.993436813354492,-54.47103500366211,-1.1503915786743164,-0.0012341781985014677,-0.002412258880212903,0.9820983409881592,-0.0014045462012290955,0.00162888178601861,-0.00024047493934631348,2024-11-20 01:03:42.650614
33.875,1034.33447265625,26.098617553710938,35,26,16,74,-26.060422897338867,-54.53715133666992,-0.7996801733970642,-0.0004936712794005871,0.0009711703169159591,0.9820983409881592,-0.002926670014858246,0.0028647263534367085,-0.001799941062927246,2024-11-20 01:03:42.702938
33.983333587646484,1034.3369140625,26.05637550354004,35,26,16,74,-26.133878707885742,-54.56655502319336,-0.6356518864631653,-0.006417726632207632,-0.006030647549778223,0.9803923964500427,0.0007522106170654297,-0.0008210893720388412,7.604062557220459e-05,2024-11-20 01:03:42.754066
33.983333587646484,1034.3369140625,26.05637550354004,35,26,16,74,-26.324216842651367,-54.19942092895508,-0.667558491230011,-0.0009873425588011742,0.00048558515845797956,0.9813672304153442,0.0022341981530189514,-0.0008395761251449585,-0.000547364354133606,2024-11-20 01:03:42.798499
33.983333587646484,1034.338134765625,26.96760368347168,35,26,16,74,-26.43523406982422,-54.20793151855469,-1.0076959133148193,-0.0037025348283350468,-0.0045832921750843525,0.9786865711212158,0.003961525857448578,-0.0005112923681735992,-0.0014350637793540955,2024-11-20 01:03:42.840880
33.983333587646484,1034.3349609375,26.96760368347168,35,26,16,74,-26.37879180908203,-54.123497009277344,-1.5592224597930908,-0.0014810138382017612,-0.0012061294401064515,0.9806361198425293,0.0007628053426742554,0.0004244539886713028,-0.0004530176520347595,2024-11-20 01:03:42.883597
34.019447326660156,1034.33837890625,26.883119583129883,35,26,16,74,-26.153587341308594,-53.729087829589844,-0.723493754863739,-0.004196206107735634,-0.002894710749387741,0.9784428477287292,0.0028116926550865173,-0.0010478701442480087,0.001085922122001648,2024-11-20 01:03:42.930998
33.8930549621582,1034.335205078125,25.781801223754883,35,26,16,74,-25.97474479675293,-54.18600845336914,-0.9661295413970947,-0.0024683563970029354,-0.002171033062040806,0.9794176816940308,-0.0008211955428123474,-0.0013413866981863976,-0.0013053789734840393,2024-11-20 01:03:42.982985
33.8930549621582,1034.33984375,25.781801223754883,35,26,16,74,-26.134809494018555,-54.621055603027344,-1.572991132736206,-0.0012341781985014677,-0.0,0.9789302349090576,0.00011023133993148804,-0.0004040142521262169,-0.0006646141409873962,2024-11-20 01:03:43.026827
33.875,1034.343017578125,25.56757164001465,35,26,16,74,-25.956504821777344,-54.68006896972656,-2.6852030754089355,-0.002715192036703229,-0.0031359365675598383,0.9801487326622009,0.003092445433139801,-0.0009547248482704163,-0.00015639513731002808,2024-11-20 01:03:43.072023
33.875,1034.3408203125,25.56757164001465,35,26,16,74,-26.193296432495117,-54.53739547729492,-1.8690625429153442,-0.0012341781985014677,-0.0,0.9801487326622009,-0.0005631223320960999,-0.0009386790916323662,0.001948326826095581,2024-11-20 01:03:43.122379
33.875,1034.34521484375,24.61410140991211,35,26,16,74,-26.275732040405273,-54.524295806884766,-1.7801752090454102,-0.0024683563970029354,-0.002171033062040806,0.9806361198425293,-0.0017771124839782715,0.0003144433721899986,0.00046522170305252075,2024-11-20 01:03:43.173667
33.91111373901367,1034.34521484375,25.79688835144043,35,26,16,74,-26.479759216308594,-54.4156608581543,-2.004232883453369,-0.0029620276764035225,-0.0012061294401064515,0.9784428477287292,0.0012750476598739624,-6.1532482504844666e-06,-0.0010542944073677063,2024-11-20 01:03:43.224881
33.91111373901367,1034.341064453125,25.79688835144043,35,26,16,74,-26.46456527709961,-54.515350341796875,-1.738846778869629,-0.0012341781985014677,-0.0007236776873469353,0.9781991243362427,-0.001160450279712677,0.002085982821881771,0.0019360333681106567,2024-11-20 01:03:43.267949
33.80278015136719,1034.340576171875,25.89947509765625,35,26,16,74,-26.644495010375977,-54.69051742553711,-1.693280816078186,-0.0019746851176023483,-0.0036183884367346764,0.9786865711212158,0.0018200874328613281,-0.0002946704626083374,0.0018804296851158142,2024-11-20 01:03:43.319111
33.838890075683594,1034.33935546875,26.008098602294922,35,26,16,74,-26.729761123657227,-54.65790557861328,-1.8857753276824951,-0.002715192036703229,-0.0009649035637266934,0.9781991243362427,0.004346184432506561,-0.0030644554644823074,0.0009424388408660889,2024-11-20 01:03:43.363266
33.838890075683594,1034.340087890625,26.008098602294922,35,26,16,74,-26.46586036682129,-54.4311637878418,-1.5941009521484375,-0.003208863316103816,-0.0016885813092812896,0.9811235070228577,-0.0005378574132919312,-0.0005649663507938385,0.0015217214822769165,2024-11-20 01:03:43.413323
34.03750228881836,1034.341552734375,26.213275909423828,35,26,16,74,-26.23512077331543,-54.52885818481445,-1.5000174045562744,-0.0017278495943173766,-0.0007236776873469353,0.9818546175956726,-0.0032085776329040527,0.0006543155759572983,0.0005501657724380493,2024-11-20 01:03:43.464732
34.03750228881836,1034.339111328125,26.213275909423828,35,26,16,74,-25.806873321533203,-54.53868103027344,-1.4725680351257324,-0.0014810138382017612,-0.0004824517818633467,0.9781991243362427,-0.00042226165533065796,-0.0023357775062322617,-0.0009885281324386597,2024-11-20 01:03:43.508185
33.80278015136719,1034.340576171875,25.516277313232422,35,26,16,74,-25.907611846923828,-54.7005500793457,-1.7935025691986084,-0.0024683563970029354,-0.002653484931215644,0.9799050092697144,-0.006091021001338959,0.0018884050659835339,0.0016884803771972656,2024-11-20 01:03:43.557619
33.838890075683594,1034.345458984375,26.732254028320312,35,26,16,74,-25.89936065673828,-54.982032775878906,-1.8710825443267822,-0.0009873425588011742,-0.0007236776873469353,0.9803923964500427,-0.001504071056842804,4.3118372559547424e-05,0.0013844668865203857,2024-11-20 01:03:43.603470
33.838890075683594,1034.345458984375,26.732254028320312,35,26,16,74,-25.960927963256836,-54.765506744384766,-1.0177762508392334,-0.0024683563970029354,-0.0016885813092812896,0.9806361198425293,0.0012322217226028442,-0.0014251861721277237,-0.00011552125215530396,2024-11-20 01:03:43.651650
33.929168701171875,1034.346923828125,25.914562225341797,35,26,16,74,-25.93638801574707,-54.471649169921875,-0.24876683950424194,-0.0019746851176023483,-0.002412258880212903,0.9784428477287292,0.0018221065402030945,0.00039688125252723694,0.0007762238383293152,2024-11-20 01:03:43.697076
33.929168701171875,1034.34765625,25.914562225341797,36,26,16,74,-25.85085105895996,-54.610145568847656,-0.4970405697822571,-0.003949370235204697,-0.002894710749387741,0.9769806265830994,-0.0017868652939796448,0.0018887952901422977,0.0007726475596427917,2024-11-20 01:03:43.740477
33.91111373901367,1034.348388671875,26.089567184448242,36,26,16,74,-25.823671340942383,-54.85009765625,-0.916522204875946,-0.0017278495943173766,-0.002171033062040806,0.9811235070228577,0.0015302374958992004,-0.003520236350595951,0.0007344260811805725,2024-11-20 01:03:43.788791
33.91111373901367,1034.34619140625,26.089567184448242,36,26,16,74,-25.89242935180664,-54.89837646484375,-0.877944827079773,-0.002221520757302642,-0.0,0.9791739583015442,0.0009285509586334229,-0.0007430259138345718,0.00046794116497039795,2024-11-20 01:03:43.834671
34.00138854980469,1034.343994140625,25.884389877319336,36,26,16,74,-25.94392204284668,-54.660770416259766,-0.3990296423435211,-0.0017278495943173766,-0.00024122589093167335,0.9772243499755859,0.0011323466897010803,-0.00042077619582414627,-0.00041569024324417114,2024-11-20 01:03:43.883385
33.875,1034.3427734375,26.13482666015625,35,26,16,74,-25.905712127685547,-54.63948059082031,-0.43886956572532654,-0.0019746851176023483,-0.0014473553746938705,0.9786865711212158,-0.003277719020843506,0.000746188685297966,-0.0010559037327766418,2024-11-20 01:03:43.928241
33.875,1034.3427734375,26.13482666015625,35,26,16,74,-25.888103485107422,-54.62237548828125,-0.6329074501991272,-0.003949370235204697,-0.0031359365675598383,0.9772243499755859,-0.000857330858707428,0.00042378343641757965,0.0016739815473556519,2024-11-20 01:03:43.976336
33.78472137451172,1034.34619140625,25.887407302856445,35,26,16,74,-26.12352752685547,-54.40495300292969,-0.941613495349884,-0.0029620276764035225,-0.0,0.9791739583015442,0.0006316676735877991,0.0001473892480134964,0.0025217384099960327,2024-11-20 01:03:44.021426
33.78472137451172,1034.345458984375,25.887407302856445,35,26,16,74,-26.428625106811523,-54.427547454833984,-1.5362730026245117,-0.0019746851176023483,-0.0009649035637266934,0.9806361198425293,-0.0017567873001098633,0.002232082188129425,-0.001171804964542389,2024-11-20 01:03:44.067221
33.8930549621582,1034.342041015625,26.463712692260742,36,26,16,74,-26.397930145263672,-54.77052688598633,-2.264814615249634,-0.0017278495943173766,-0.0014473553746938705,0.9777117371559143,8.35806131362915e-05,-0.002983921207487583,0.0003225952386856079,2024-11-20 01:03:44.113761
33.94722366333008,1034.341064453125,26.249483108520508,36,26,16,74,-26.115591049194336,-54.7845458984375,-2.7834386825561523,-0.002221520757302642,-0.0016885813092812896,0.9786865711212158,0.0015954747796058655,-0.0011446308344602585,-0.002741396427154541,2024-11-20 01:03:44.159921
33.94722366333008,1034.345947265625,26.249483108520508,36,26,16,74,-25.773591995239258,-54.7711067199707,-1.7620391845703125,-0.0004936712794005871,-0.0,0.9786865711212158,0.000667765736579895,-0.0005247956141829491,-0.0005932226777076721,2024-11-20 01:03:44.209854
33.838890075683594,1034.343994140625,26.680959701538086,35,26,16,74,-26.20489501953125,-54.83736801147461,-1.4151666164398193,-0.002715192036703229,-0.0009649035637266934,0.9799050092697144,0.0012053176760673523,-0.0005035698413848877,-0.0006084740161895752,2024-11-20 01:03:44.260652
33.838890075683594,1034.345458984375,26.680959701538086,35,26,16,74,-26.266340255737305,-54.51726150512695,-0.8628224730491638,-0.0029620276764035225,-0.002171033062040806,0.9774680733680725,0.0012612193822860718,7.143989205360413e-05,0.000582769513130188,2024-11-20 01:03:44.313011
33.929168701171875,1034.346435546875,27.00079345703125,35,26,16,74,-25.99601173400879,-54.383975982666016,-0.989285945892334,-0.0012341781985014677,-0.0,0.9777117371559143,-0.004431463778018951,0.0021948032081127167,0.0023351311683654785,2024-11-20 01:03:44.363950
33.91111373901367,1034.345703125,25.94171905517578,35,26,16,74,-25.972837448120117,-54.3961067199707,-1.2001450061798096,-0.0017278495943173766,-0.00024122589093167335,0.9803923964500427,-0.004120729863643646,0.001900330651551485,0.00021719187498092651,2024-11-20 01:03:44.416635
33.91111373901367,1034.34912109375,25.94171905517578,36,26,16,74,-25.850311279296875,-54.502471923828125,-1.4395195245742798,-0.002715192036703229,-0.0031359365675598383,0.9818546175956726,0.003450147807598114,-0.0017277495935559273,-0.0001039654016494751,2024-11-20 01:03:44.460494
33.929168701171875,1034.3447265625,25.10592269897461,36,26,16,74,-26.237594604492188,-54.71276092529297,-1.5418530702590942,-0.0009873425588011742,-0.0004824517818633467,0.9789302349090576,0.0025079846382141113,-0.0023426124826073647,-0.0012550130486488342,2024-11-20 01:03:44.508956
33.80278015136719,1034.35009765625,24.891695022583008,36,26,16,74,-26.487648010253906,-55.16395950317383,-1.4285210371017456,-0.0029620276764035225,-0.0014473553746938705,0.9784428477287292,-0.0017449259757995605,0.0004208739846944809,0.0002733767032623291,2024-11-20 01:03:44.554173
33.80278015136719,1034.349365234375,24.891695022583008,36,26,16,74,-26.503158569335938,-55.053138732910156,-1.2750271558761597,-0.0009873425588011742,-0.00024122589093167335,0.9799050092697144,1.35079026222229e-05,0.0007650703191757202,-6.554275751113892e-05,2024-11-20 01:03:44.607806
33.91111373901367,1034.349609375,25.763696670532227,36,26,16,74,-26.316064834594727,-54.9870719909668,-0.3988312780857086,-0.0024683563970029354,-0.002653484931215644,0.9813672304153442,-0.0009083300828933716,0.00022663455456495285,0.00026820600032806396,2024-11-20 01:03:44.657538
33.838890075683594,1034.35302734375,26.13180923461914,36,26,16,74,-26.291088104248047,-54.642913818359375,0.041749484837055206,-0.0017278495943173766,-0.0031359365675598383,0.9808798432350159,-0.001754269003868103,-2.4590641260147095e-05,-0.0011611208319664001,2024-11-20 01:03:44.709448
33.838890075683594,1034.351318359375,26.13180923461914,36,26,16,74,-26.42440414428711,-54.67703628540039,-0.2027721405029297,-0.0009873425588011742,-0.0,0.9789302349090576,-0.00028035789728164673,0.00057209562510252,-0.0017492398619651794,2024-11-20 01:03:44.758872
33.8930549621582,1034.3515625,25.510242462158203,36,26,16,74,-26.272056579589844,-54.927310943603516,-0.5064775943756104,-0.0017278495943173766,-0.002412258880212903,0.9784428477287292,0.0008747726678848267,-4.6603381633758545e-05,-0.0017473846673965454,2024-11-20 01:03:44.807728
33.8930549621582,1034.35009765625,25.510242462158203,36,26,16,74,-26.15134048461914,-54.72419357299805,-1.04298734664917,-0.0024683563970029354,-0.002653484931215644,0.9796612858772278,0.0006361603736877441,-3.419816493988037e-05,-0.00020921975374221802,2024-11-20 01:03:44.851803
33.875,1034.346435546875,26.80768585205078,36,26,16,74,-26.13035774230957,-54.692928314208984,-1.2255315780639648,-0.0012341781985014677,0.00024279257922898978,0.9772243499755859,-0.0020435675978660583,0.0026405025273561478,0.0028292983770370483,2024-11-20 01:03:44.897373
33.82083511352539,1034.349609375,24.99126625061035,36,26,16,74,-26.037033081054688,-54.610713958740234,-0.8861485719680786,-0.0014810138382017612,-0.0036183884367346764,0.9789302349090576,-0.0014220625162124634,0.0004528360441327095,0.0004320666193962097,2024-11-20 01:03:44.940129
33.82083511352539,1034.346435546875,24.99126625061035,36,26,16,74,-25.882713317871094,-55.174537658691406,-0.9243946075439453,-0.002221520757302642,0.0007283777231350541,0.9784428477287292,0.0006697773933410645,0.001316482201218605,0.0010564103722572327,2024-11-20 01:03:44.988827
33.8569450378418,1034.34716796875,25.94775390625,36,26,16,74,-26.101503372192383,-54.93604278564453,-1.0485128164291382,-0.0024683563970029354,-0.002171033062040806,0.9801487326622009,0.0009370371699333191,-0.000746164470911026,-0.00012230128049850464,2024-11-20 01:03:45.034611
33.8569450378418,1034.347900390625,25.94775390625,36,26,16,74,-26.321094512939453,-54.82822036743164,-0.4384309947490692,-0.0024683563970029354,-0.0019298071274533868,0.9796612858772278,0.0036892592906951904,-0.0010748272761702538,-0.0024939924478530884,2024-11-20 01:03:45.082660
33.8569450378418,1034.35400390625,26.17103385925293,36,26,16,74,-26.316089630126953,-54.68186569213867,-0.6250621676445007,-0.0024683563970029354,-0.0004824517818633467,0.9786865711212158,0.0018793419003486633,-0.0014020828530192375,0.0017990246415138245,2024-11-20 01:03:45.128960
33.8569450378418,1034.35595703125,26.17103385925293,36,26,16,74,-26.556255340576172,-54.775699615478516,-1.2035470008850098,-0.0017278495943173766,-0.002171033062040806,0.9784428477287292,0.0009300112724304199,-0.0007719257846474648,0.0005485117435455322,2024-11-20 01:03:45.178440
33.8930549621582,1034.35498046875,26.330951690673828,36,26,16,74,-26.488323211669922,-54.86838912963867,-1.0839933156967163,-0.0014810138382017612,-0.0014473553746938705,0.9799050092697144,0.0009743273258209229,-0.0017296839505434036,0.0008414685726165771,2024-11-20 01:03:45.228917
33.94722366333008,1034.356201171875,26.2042236328125,36,26,16,74,-26.635658264160156,-54.835601806640625,-1.2564313411712646,-0.002221520757302642,-0.0014473553746938705,0.9781991243362427,-0.0002397596836090088,0.00012313015758991241,-0.0016027316451072693,2024-11-20 01:03:45.282429
33.94722366333008,1034.34814453125,26.2042236328125,36,26,16,74,-26.828868865966797,-54.96663284301758,-1.5386404991149902,-0.0014810138382017612,-0.0012061294401064515,0.9796612858772278,0.002204298973083496,0.0007828110828995705,0.001119457185268402,2024-11-20 01:03:45.333194
33.8569450378418,1034.345703125,27.23614501953125,36,26,16,74,-26.62238311767578,-55.2274284362793,-1.4922683238983154,-0.0017278495943173766,-0.0014473553746938705,0.9791739583015442,-0.0011929646134376526,0.0007441714406013489,0.0005684196949005127,2024-11-20 01:03:45.381600
33.82083511352539,1034.346435546875,25.839130401611328,36,26,16,74,-26.05008888244629,-54.874122619628906,-1.0134271383285522,-0.0017278495943173766,-0.0007236776873469353,0.9784428477287292,-0.0024002045392990112,0.0004570251330733299,0.0017465725541114807,2024-11-20 01:03:45.426432
33.82083511352539,1034.346435546875,25.839130401611328,36,26,16,74,-26.24049186706543,-54.39586639404297,-1.27653968334198,-0.0014810138382017612,-0.0014473553746938705,0.9777117371559143,0.00037126243114471436,-0.0010720910504460335,0.0014000609517097473,2024-11-20 01:03:45.477096
33.838890075683594,1034.345947265625,25.781801223754883,36,26,16,74,-26.461774826049805,-54.83795166015625,-1.0196716785430908,-0.002715192036703229,-0.0014473553746938705,0.9811235070228577,-0.0026449114084243774,0.0019040643237531185,0.0017405450344085693,2024-11-20 01:03:45.523508
33.838890075683594,1034.34423828125,25.781801223754883,36,26,16,74,-26.758975982666016,-54.70363998413086,-1.0384522676467896,-0.0014810138382017612,-0.0004824517818633467,0.9818546175956726,0.0015352219343185425,0.0007181465625762939,0.000533469021320343,2024-11-20 01:03:45.570606
33.94722366333008,1034.345703125,26.674924850463867,36,26,16,74,-26.783824920654297,-54.82988739013672,-0.9116385579109192,-0.0024683563970029354,-0.0009649035637266934,0.9813672304153442,-0.003622010350227356,-0.0010940181091427803,-0.00010804086923599243,2024-11-20 01:03:45.615198
33.8569450378418,1034.34423828125,27.64348030090332,36,26,16,74,-26.632089614868164,-54.97554016113281,-0.8608459234237671,-0.0007405069191008806,-0.0007236776873469353,0.9791739583015442,0.002498447895050049,-0.001099325716495514,-0.00015760213136672974,2024-11-20 01:03:45.660173
33.8569450378418,1034.34033203125,27.64348030090332,36,26,16,74,-26.548534393310547,-54.78029251098633,-0.7158614993095398,-0.0019746851176023483,-0.0019298071274533868,0.9784428477287292,0.0012585073709487915,0.001607738435268402,0.0004907622933387756,2024-11-20 01:03:45.710805
33.875,1034.340087890625,26.6538028717041,36,26,16,74,-26.413484573364258,-54.68506622314453,-0.8525958061218262,-0.002221520757302642,-0.0007236776873469353,0.9786865711212158,-0.0015064999461174011,0.0015431726351380348,0.001126997172832489,2024-11-20 01:03:45.761054
33.875,1034.340087890625,26.6538028717041,36,26,16,74,-26.53297233581543,-54.54744338989258,-1.0732518434524536,-0.0024683563970029354,-0.0012061294401064515,0.9774680733680725,0.0018819049000740051,0.0008609350770711899,-0.00012040138244628906,2024-11-20 01:03:45.806468
33.91111373901367,1034.340576171875,26.16801643371582,36,26,16,74,-26.46148109436035,-54.414215087890625,-1.5460091829299927,-0.0014810138382017612,-0.0,0.9801487326622009,-0.0015246942639350891,0.00024263467639684677,-0.001315884292125702,2024-11-20 01:03:45.848228
33.91111373901367,1034.33740234375,26.273622512817383,36,26,16,74,-26.31222915649414,-54.48938751220703,-1.0063326358795166,-0.0017278495943173766,-0.0009649035637266934,0.9818546175956726,0.001823820173740387,-0.0006151152774691582,0.0002008005976676941,2024-11-20 01:03:45.896513
33.91111373901367,1034.3369140625,26.273622512817383,36,26,16,74,-26.245779037475586,-54.53215026855469,-1.913616418838501,-0.0019746851176023483,-0.0009649035637266934,0.9794176816940308,0.0018282756209373474,-0.002131114713847637,0.0010617971420288086,2024-11-20 01:03:45.948600
33.838890075683594,1034.335693359375,25.452913284301758,36,26,16,74,-26.534385681152344,-54.32669448852539,-1.7852157354354858,-0.0019746851176023483,-0.0007236776873469353,0.9774680733680725,0.003629259765148163,0.0008972901850938797,0.0010893195867538452,2024-11-20 01:03:45.994457
33.838890075683594,1034.34033203125,25.452913284301758,36,26,16,74,-26.82904624938965,-54.47547912597656,-1.4180972576141357,-0.0007405069191008806,-0.002894710749387741,0.9784428477287292,-0.0024219974875450134,0.0018140976317226887,-0.0004263073205947876,2024-11-20 01:03:46.041931
33.74861145019531,1034.3447265625,25.443862915039062,36,26,16,74,-26.8659610748291,-54.5897216796875,-0.9762156009674072,-0.0012341781985014677,-0.0016885813092812896,0.9818546175956726,0.0033583417534828186,8.248724043369293e-06,0.00043044984340667725,2024-11-20 01:03:46.094460
33.91111373901367,1034.348388671875,25.760679244995117,36,26,16,74,-26.793411254882812,-54.44712829589844,-0.6729705929756165,-0.0017278495943173766,-0.0009649035637266934,0.9786865711212158,0.00030365586280822754,-0.00029237568378448486,0.0019053816795349121,2024-11-20 01:03:46.139510
33.91111373901367,1034.34716796875,25.760679244995117,36,26,16,74,-26.69017219543457,-54.508121490478516,-0.7202742099761963,-0.0024683563970029354,-0.0007236776873469353,0.9789302349090576,-0.001817859709262848,0.0024341437965631485,0.00036922842264175415,2024-11-20 01:03:46.190457
33.91111373901367,1034.34521484375,24.324440002441406,36,26,16,74,-26.532176971435547,-54.462032318115234,-1.0904375314712524,-0.0014810138382017612,-0.0016885813092812896,0.9808798432350159,-0.0024233758449554443,0.0015374710783362389,0.0007013604044914246,2024-11-20 01:03:46.242171
33.91111373901367,1034.34912109375,25.932666778564453,36,26,16,74,-26.305147171020508,-54.33222579956055,-1.2490750551223755,-0.0034556991886347532,-0.0031359365675598383,0.9803923964500427,-0.00022577494382858276,-0.00034525711089372635,-0.0008399561047554016,2024-11-20 01:03:46.290132
33.91111373901367,1034.350341796875,25.932666778564453,36,26,16,74,-26.182336807250977,-54.5186767578125,-1.2922062873840332,-0.0012341781985014677,0.0009711703169159591,0.982342004776001,-0.001106061041355133,0.0002626199275255203,0.0024542510509490967,2024-11-20 01:03:46.333561
33.91111373901367,1034.353759765625,25.923614501953125,36,26,16,74,-26.153593063354492,-54.76999282836914,-1.3427047729492188,-0.002221520757302642,-0.0004824517818633467,0.9786865711212158,-0.0010753646492958069,0.0004993434995412827,0.0021875500679016113,2024-11-20 01:03:46.385048
33.91111373901367,1034.357421875,25.923614501953125,36,26,16,74,-26.30767250061035,-54.75399398803711,-1.5073829889297485,-0.0024683563970029354,-0.002171033062040806,0.9803923964500427,0.00043889880180358887,0.0004893038421869278,0.00034214556217193604,2024-11-20 01:03:46.428195
33.929168701171875,1034.354736328125,26.12879180908203,36,26,16,74,-26.505905151367188,-54.59693908691406,-1.4246044158935547,-0.0009873425588011742,0.00024279257922898978,0.9806361198425293,-0.0001890137791633606,-0.001311090774834156,0.0006057173013687134,2024-11-20 01:03:46.479288
33.8930549621582,1034.354248046875,25.468000411987305,36,26,16,74,-26.644264221191406,-54.49823760986328,-1.004478096961975,-0.002221520757302642,-0.0,0.9781991243362427,0.0021775811910629272,0.0005357703194022179,-0.0006151646375656128,2024-11-20 01:03:46.523339
33.8930549621582,1034.352783203125,25.468000411987305,36,26,16,74,-26.685850143432617,-54.62519454956055,-1.041580080986023,-0.0017278495943173766,-0.0012061294401064515,0.9781991243362427,0.002100415527820587,-0.0015381323173642159,-0.0002896636724472046,2024-11-20 01:03:46.573395
34.019447326660156,1034.35400390625,26.05637550354004,36,26,16,74,-26.677810668945312,-54.721961975097656,-1.2744942903518677,-0.003208863316103816,-0.002894710749387741,0.9813672304153442,-0.001176886260509491,2.4650245904922485e-05,0.0006503239274024963,2024-11-20 01:03:46.617841
34.019447326660156,1034.353271484375,26.05637550354004,36,26,16,74,-26.652219772338867,-54.8026123046875,-1.2790634632110596,-0.0009873425588011742,0.00024279257922898978,0.9784428477287292,-0.0008830949664115906,6.312597543001175e-05,0.001178734004497528,2024-11-20 01:03:46.668501
33.94722366333008,1034.352783203125,25.993013381958008,36,26,16,74,-26.653287887573242,-54.96820068359375,-1.188004732131958,-0.0034556991886347532,-0.003377162618562579,0.9813672304153442,-0.00346209853887558,-0.000540771521627903,-0.0006615668535232544,2024-11-20 01:03:46.713029
33.8930549621582,1034.352783203125,24.930919647216797,36,26,16,74,-26.68671417236328,-55.33621597290039,-1.2415430545806885,-0.0014810138382017612,-0.0004824517818633467,0.9818546175956726,-0.001699194312095642,0.002194289118051529,0.0008675903081893921,2024-11-20 01:03:46.764236
33.8930549621582,1034.353759765625,24.930919647216797,36,26,16,74,-26.286378860473633,-55.21174621582031,-1.1206785440444946,-0.002221520757302642,-0.00024122589093167335,0.9781991243362427,0.0007975399494171143,0.0006594564765691757,0.000559099018573761,2024-11-20 01:03:46.807632
33.91111373901367,1034.350341796875,26.47276496887207,36,26,16,74,-26.349342346191406,-55.12002944946289,-0.9797779321670532,-0.002221520757302642,-0.0007236776873469353,0.9808798432350159,-0.0022596269845962524,0.0022029466927051544,-0.0012403875589370728,2024-11-20 01:03:46.859252
33.91111373901367,1034.35009765625,26.47276496887207,36,26,16,74,-26.447444915771484,-55.33383560180664,-0.7600403428077698,-0.0014810138382017612,0.00048558515845797956,0.9830730557441711,0.0009722709655761719,-0.001108504831790924,0.0015042498707771301,2024-11-20 01:03:46.902685
33.8930549621582,1034.34912109375,26.113704681396484,36,26,16,74,-26.51540184020996,-55.26264953613281,-1.1724141836166382,-0.0037025348283350468,-0.0036183884367346764,0.9784428477287292,0.0039781928062438965,-0.0008015409111976624,0.0011740028858184814,2024-11-20 01:03:46.950572
33.875,1034.353759765625,26.032238006591797,36,26,16,74,-26.54358673095703,-54.80009460449219,-1.3631566762924194,-0.0007405069191008806,0.00024279257922898978,0.9777117371559143,0.0008330643177032471,-0.0010474687442183495,-0.0006060898303985596,2024-11-20 01:03:46.994909
33.875,1034.35498046875,26.032238006591797,36,26,16,74,-26.46646499633789,-54.7990608215332,-1.2359204292297363,-0.002221520757302642,-0.0014473553746938705,0.9796612858772278,-0.0006754100322723389,0.0011116880923509598,0.0002543628215789795,2024-11-20 01:03:47.045353
33.8569450378418,1034.357666015625,26.400348663330078,36,26,16,74,-26.480775833129883,-54.75649642944336,-1.1697218418121338,-0.002221520757302642,-0.002412258880212903,0.9818546175956726,-0.0016076713800430298,-0.0007351292297244072,0.00024662911891937256,2024-11-20 01:03:47.096505
33.8569450378418,1034.35888671875,26.400348663330078,36,26,16,74,-26.744203567504883,-54.69205093383789,-0.39344024658203125,-0.0019746851176023483,-0.0014473553746938705,0.9784428477287292,0.0026264265179634094,0.0016434872522950172,-0.0018124282360076904,2024-11-20 01:03:47.140293
33.96527862548828,1034.35791015625,26.005081176757812,36,26,16,74,-26.93817138671875,-54.23247146606445,0.17906838655471802,-0.002715192036703229,-0.0012061294401064515,0.9784428477287292,-0.0013974979519844055,6.564240902662277e-05,8.427351713180542e-05,2024-11-20 01:03:47.185816
33.838890075683594,1034.357666015625,26.158964157104492,36,26,16,74,-26.660415649414062,-53.97056579589844,-0.9953663349151611,-0.0012341781985014677,-0.0012061294401064515,0.9801487326622009,0.0005734413862228394,-0.0013586953282356262,0.001041129231452942,2024-11-20 01:03:47.227200
33.838890075683594,1034.352783203125,26.158964157104492,36,26,16,74,-26.507883071899414,-54.09088897705078,-1.3808132410049438,-0.002221520757302642,-0.0019298071274533868,0.9791739583015442,-0.00474480539560318,0.001641848124563694,0.001354910433292389,2024-11-20 01:03:47.270836
33.91111373901367,1034.352783203125,26.047325134277344,36,26,16,74,-26.36895179748535,-54.06166076660156,-1.3525452613830566,-0.0014810138382017612,-0.0004824517818633467,0.9779554605484009,-0.0013564229011535645,-0.0008068699389696121,0.0010125860571861267,2024-11-20 01:03:47.319129
33.91111373901367,1034.348876953125,26.047325134277344,36,26,16,74,-26.242408752441406,-54.15157699584961,-1.360730528831482,-0.0024683563970029354,-0.0014473553746938705,0.9808798432350159,0.001613222062587738,8.894596248865128e-05,0.0019178688526153564,2024-11-20 01:03:47.362939
33.8569450378418,1034.343505859375,26.05939292907715,36,26,16,74,-26.227876663208008,-54.45690155029297,-1.4735057353973389,-0.0014810138382017612,-0.0012061294401064515,0.9786865711212158,-0.006219364702701569,0.0016312869265675545,0.0036942213773727417,2024-11-20 01:03:47.407592
33.8569450378418,1034.344970703125,26.05939292907715,36,26,16,74,-26.260852813720703,-54.6143684387207,-1.5552289485931396,-0.0017278495943173766,-0.0,0.9799050092697144,-0.0009559020400047302,-0.00021605473011732101,-0.0002878531813621521,2024-11-20 01:03:47.457994
33.82083511352539,1034.343994140625,25.938701629638672,36,26,16,74,-26.481250762939453,-54.661277770996094,-1.0512455701828003,-0.002221520757302642,-0.0,0.9808798432350159,0.0032643601298332214,8.787587285041809e-05,-0.00028301775455474854,2024-11-20 01:03:47.513615
33.91111373901367,1034.344970703125,25.090837478637695,36,26,16,74,-26.554000854492188,-54.66853332519531,-0.9340792894363403,-0.0029620276764035225,-0.0007236776873469353,0.9801487326622009,0.0011508241295814514,-0.0013978742063045502,-0.0008695051074028015,2024-11-20 01:03:47.568677
33.91111373901367,1034.343994140625,25.090837478637695,36,26,16,74,-26.492908477783203,-54.68962097167969,-0.9657871723175049,-0.0014810138382017612,-0.0012061294401064515,0.9799050092697144,-0.003581322729587555,0.0013344241306185722,0.0002748817205429077,2024-11-20 01:03:47.621155
33.91111373901367,1034.341552734375,25.41067123413086,36,26,16,74,-26.462350845336914,-54.703460693359375,-1.374772071838379,-0.0017278495943173766,-0.0014473553746938705,0.9813672304153442,0.0033878833055496216,0.0013481713831424713,-0.0006645321846008301,2024-11-20 01:03:47.671141
33.91111373901367,1034.333740234375,25.769731521606445,36,26,16,74,-26.1270694732666,-54.843605041503906,-1.5362623929977417,-0.003949370235204697,-0.002894710749387741,0.9789302349090576,0.0009285509586334229,0.0013255132362246513,0.00024753063917160034,2024-11-20 01:03:47.722523
33.91111373901367,1034.3359375,25.769731521606445,36,26,16,74,-25.965051651000977,-54.78123092651367,-1.0689828395843506,-0.0012341781985014677,0.0007283777231350541,0.9781991243362427,-0.002931460738182068,0.0012947022914886475,0.0017216131091117859,2024-11-20 01:03:47.779472
33.96527862548828,1034.34130859375,26.21025848388672,36,26,16,74,-25.885013580322266,-54.663909912109375,-0.8731183409690857,-0.002221520757302642,-0.0009649035637266934,0.9786865711212158,-0.0010741576552391052,-0.00021631363779306412,0.0014012306928634644,2024-11-20 01:03:47.835208
33.82083511352539,1034.339599609375,26.51500701904297,36,26,16,74,-25.89471435546875,-54.483482360839844,-1.543419361114502,-0.004196206107735634,-0.0031359365675598383,0.981610894203186,-0.00042450428009033203,0.001255616545677185,-0.0016315355896949768,2024-11-20 01:03:47.886212
33.82083511352539,1034.33837890625,26.51500701904297,36,26,16,74,-26.505929946899414,-54.40911102294922,-2.106889247894287,-0.0004936712794005871,0.00048558515845797956,0.9789302349090576,-0.0016185641288757324,-0.0011678803712129593,-0.0004029199481010437,2024-11-20 01:03:47.933137
33.91111373901367,1034.339599609375,25.926631927490234,36,26,16,74,-26.334156036376953,-54.6822395324707,-1.867356300354004,-0.005924055352807045,-0.002653484931215644,0.9767369627952576,-0.0018486306071281433,-0.0008794916793704033,-9.743869304656982e-05,2024-11-20 01:03:47.985167
33.94722366333008,1034.342529296875,25.89947509765625,36,26,16,74,-26.282583236694336,-54.690093994140625,-1.3955682516098022,-0.0014810138382017612,-0.0007236776873469353,0.9781991243362427,-2.0213425159454346e-05,0.0021369075402617455,-0.0012889280915260315,2024-11-20 01:03:48.049981
33.94722366333008,1034.339599609375,25.89947509765625,36,26,16,74,-26.42793846130371,-54.63969802856445,-1.9725483655929565,-0.0017278495943173766,-0.0007236776873469353,0.9769806265830994,-0.002116084098815918,-0.0008915290236473083,0.0017176568508148193,2024-11-20 01:03:48.100364
33.94722366333008,1034.34130859375,24.87660789489746,36,26,16,74,-26.5441837310791,-54.57455825805664,-1.458886742591858,-0.003949370235204697,-0.0045832921750843525,0.9791739583015442,-0.0002904757857322693,0.0011896630749106407,-0.00011444836854934692,2024-11-20 01:03:48.153075
33.875,1034.3427734375,26.116722106933594,36,26,16,74,-26.6611270904541,-54.487457275390625,-0.5992919206619263,-0.0009873425588011742,-0.00024122589093167335,0.9801487326622009,-0.004211090505123138,0.0014811139553785324,0.00021170824766159058,2024-11-20 01:03:48.207269
33.875,1034.345947265625,26.116722106933594,36,26,16,74,-26.6922607421875,-54.36082077026367,-0.36244142055511475,-0.002715192036703229,0.061426520347595215,0.9779554605484009,0.00034877657890319824,-0.0012618722394108772,-0.0007132813334465027,2024-11-20 01:03:48.264258
33.91111373901367,1034.343505859375,24.218833923339844,36,26,16,74,-26.897235870361328,-54.29909896850586,-0.023502551019191742,-0.003949370235204697,-0.0038596142549067736,0.9781991243362427,-0.0017350241541862488,0.0005424283444881439,0.002009466290473938,2024-11-20 01:03:48.314610
33.94722366333008,1034.346435546875,25.71240234375,36,26,16,74,-26.883182525634766,-53.82680892944336,0.3211137652397156,-0.0004936712794005871,0.00024279257922898978,0.9801487326622009,-0.00022219866514205933,0.0011561727151274681,-0.0013229623436927795,2024-11-20 01:03:48.364236
33.94722366333008,1034.34375,25.71240234375,36,26,16,74,-27.087121963500977,-54.212982177734375,0.02267984114587307,-0.004689877387136221,-0.0036183884367346764,0.9784428477287292,0.003141559660434723,-0.001893707551062107,-0.0010070428252220154,2024-11-20 01:03:48.408328
33.875,1034.33984375,25.305065155029297,36,26,16,74,-27.129375457763672,-54.644893646240234,-0.13613037765026093,-0.0004936712794005871,0.0007283777231350541,0.9781991243362427,-0.003536336123943329,0.00143349077552557,0.0010554119944572449,2024-11-20 01:03:48.453654
33.983333587646484,1034.339111328125,26.20724105834961,36,26,16,74,-26.970809936523438,-54.222225189208984,0.09756063669919968,-0.002715192036703229,-0.0007236776873469353,0.9779554605484009,0.00311964750289917,-0.0028114859014749527,0.0007428228855133057,2024-11-20 01:03:48.502196
33.983333587646484,1034.340087890625,26.20724105834961,36,26,16,74,-26.98760414123535,-54.03891372680664,0.22665268182754517,-0.002715192036703229,-0.00989026203751564,0.9991570711135864,0.015477970242500305,-0.004183519631624222,-0.0011158213019371033,2024-11-20 01:03:48.546079
33.875,1034.341064453125,26.041290283203125,36,26,16,74,-27.174407958984375,-54.29978561401367,0.01194952242076397,-0.004443041514605284,0.0012139629106968641,0.9684512615203857,0.031076490879058838,-0.023166701197624207,-0.0008054524660110474,2024-11-20 01:03:48.590956
33.875,1034.342529296875,26.041290283203125,36,26,16,74,-27.313583374023438,-54.456886291503906,0.423210084438324,-0.010367097333073616,-0.0014473553746938705,0.9599218368530273,-0.004004709422588348,0.0027727829292416573,0.00041963160037994385,2024-11-20 01:03:48.638886
33.875,1034.343994140625,26.2042236328125,36,26,16,74,-27.343862533569336,-54.4078483581543,0.9940221309661865,0.00315179699100554,-0.0009649035637266934,0.9820983409881592,-0.021717973053455353,0.014378014951944351,-0.0011074468493461609,2024-11-20 01:03:48.690865
33.983333587646484,1034.348388671875,26.36112403869629,36,26,16,74,-27.29094696044922,-54.384708404541016,0.9489298462867737,0.0014546754537150264,-0.0019298071274533868,0.9937956929206848,0.007296338677406311,-0.005167882889509201,0.0010302960872650146,2024-11-20 01:03:48.736413
33.983333587646484,1034.34375,26.36112403869629,36,26,16,74,-27.28054428100586,-54.3623161315918,0.8751065135002136,-0.0074050696566700935,-0.0012061294401064515,0.9694260358810425,0.004548504948616028,-0.006084520369768143,0.0010304972529411316,2024-11-20 01:03:48.787569
33.91111373901367,1034.346435546875,26.16499900817871,36,26,16,74,-27.236154556274414,-54.32760238647461,0.7890105247497559,-0.002221520757302642,0.0026707183569669724,0.9706445932388306,0.005769938230514526,-0.003946549259126186,-0.0011073127388954163,2024-11-20 01:03:48.835800
33.91111373901367,1034.344970703125,26.16499900817871,36,26,16,74,-27.083463668823242,-54.09246063232422,0.3356812000274658,-0.003208863316103816,-0.0065130991861224174,0.9789302349090576,-0.0009496957063674927,0.0030781887471675873,-0.00202314555644989,2024-11-20 01:03:48.879736
33.929168701171875,1034.346923828125,26.463712692260742,36,26,16,74,-27.102386474609375,-53.684017181396484,0.2065892070531845,0.0029093509074300528,0.0009711703169159591,0.9855100512504578,0.000882267951965332,-0.0033351583406329155,-0.0032445192337036133,2024-11-20 01:03:48.924510
34.05555725097656,1034.349365234375,26.273622512817383,36,26,16,74,-27.07323455810547,-53.476383209228516,0.7256976366043091,-0.0074050696566700935,-0.0045832921750843525,0.9769806265830994,0.007296264171600342,-0.005473295226693153,0.00011543929576873779,2024-11-20 01:03:48.973914
34.05555725097656,1034.34912109375,26.273622512817383,36,26,16,74,-26.898082733154297,-53.36152648925781,1.1904081106185913,-0.002715192036703229,0.00048558515845797956,0.9764932990074158,-0.004614599049091339,0.0009402446448802948,-0.0020222514867782593,2024-11-20 01:03:49.026379
34.00138854980469,1034.3525390625,26.581388473510742,36,26,16,74,-26.822280883789062,-53.50040054321289,1.1991550922393799,-0.0012341781985014677,0.0007283777231350541,0.9772243499755859,-0.001560695469379425,0.002162072341889143,-0.0026329606771469116,2024-11-20 01:03:49.076909
34.00138854980469,1034.350341796875,26.581388473510742,36,26,16,74,-26.9966983795166,-53.675575256347656,0.8723419904708862,-0.003208863316103816,-0.002894710749387741,0.9820983409881592,0.0005771294236183167,0.0018565310165286064,-0.0023270249366760254,2024-11-20 01:03:49.124221
33.94722366333008,1034.349365234375,27.49864959716797,36,26,16,74,-27.005870819091797,-53.91961669921875,0.5316259860992432,-0.00024683563970029354,0.0012139629106968641,0.9803923964500427,-0.0009498372673988342,0.0006350008770823479,0.0010326802730560303,2024-11-20 01:03:49.171821
33.91111373901367,1034.3466796875,26.424488067626953,36,26,16,74,-26.62225914001465,-53.91352844238281,0.982813835144043,-0.006170891225337982,-0.0038596142549067736,0.9769806265830994,0.004242599010467529,-0.0036410102620720863,0.0007272660732269287,2024-11-20 01:03:49.224749
33.91111373901367,1034.34716796875,26.424488067626953,36,26,16,74,-26.47711753845215,-53.587249755859375,1.1204001903533936,-0.0034556991886347532,-0.0014473553746938705,0.9769806265830994,-0.001254752278327942,0.0009403694421052933,-0.0004945173859596252,2024-11-20 01:03:49.278405
33.96527862548828,1034.34521484375,25.938701629638672,36,26,16,74,-26.281536102294922,-53.96213150024414,1.3578081130981445,-0.0,0.0012139629106968641,0.9803923964500427,-0.002476617693901062,0.001245873048901558,-0.0011055171489715576,2024-11-20 01:03:49.325707
33.94722366333008,1034.34912109375,25.51929473876953,36,26,16,74,-26.31334114074707,-54.22300338745117,1.501625895500183,-0.004196206107735634,-0.0031359365675598383,0.9769806265830994,-0.0015598759055137634,0.001551145687699318,0.0025592073798179626,2024-11-20 01:03:49.378478
33.94722366333008,1034.352294921875,25.51929473876953,36,26,16,74,-26.68387222290039,-54.162532806396484,1.5050761699676514,-0.0014810138382017612,-0.0,0.9789302349090576,-0.003087073564529419,0.0006350213661789894,-0.0014112591743469238,2024-11-20 01:03:49.433342
33.91111373901367,1034.350341796875,26.113704681396484,36,26,16,74,-26.70807456970215,-54.31098175048828,0.8736912608146667,-0.003208863316103816,-0.0031359365675598383,0.9796612858772278,0.005770191550254822,-0.003946295008063316,-0.000494636595249176,2024-11-20 01:03:49.482662
33.96527862548828,1034.3505859375,25.842147827148438,35,26,16,74,-26.777103424072266,-54.28916931152344,0.6738354563713074,-0.0014810138382017612,-0.0014473553746938705,0.9774680733680725,-0.0018653273582458496,0.0015510749071836472,0.00011615455150604248,2024-11-20 01:03:49.525366
33.96527862548828,1034.35302734375,25.842147827148438,35,26,16,74,-26.727413177490234,-54.51460266113281,0.21922779083251953,-0.0024683563970029354,-0.0016885813092812896,0.9774680733680725,0.0030217021703720093,-0.0015028463676571846,-0.0020216181874275208,2024-11-20 01:03:49.572645
33.929168701171875,1034.3525390625,26.8559627532959,35,26,16,74,-26.66800308227539,-54.37906265258789,-0.33955809473991394,-0.0029620276764035225,-0.0007236776873469353,0.9786865711212158,-0.003392040729522705,-0.0011973939836025238,-0.00018887221813201904,2024-11-20 01:03:49.617185
33.929168701171875,1034.3525390625,26.8559627532959,35,26,16,74,-26.513654708862305,-54.2297477722168,-0.8067317605018616,-0.0012341781985014677,-0.0014473553746938705,0.9799050092697144,0.0014941245317459106,-0.0011971183121204376,-0.0007996857166290283,2024-11-20 01:03:49.670540
33.91111373901367,1034.354248046875,25.950769424438477,36,26,16,74,-26.29177474975586,-54.30182647705078,-0.9237402081489563,-0.0034556991886347532,-0.002412258880212903,0.9781991243362427,-0.0006437227129936218,-0.0008917180821299553,-0.0011046156287193298,2024-11-20 01:03:49.719194
34.019447326660156,1034.356689453125,26.451642990112305,36,26,16,74,-26.323177337646484,-54.39638900756836,-0.8300459384918213,-0.0012341781985014677,0.00048558515845797956,0.9806361198425293,-0.00033861398696899414,-0.0018078666180372238,0.0010334774851799011,2024-11-20 01:03:49.764670
34.019447326660156,1034.359375,26.451642990112305,36,26,16,74,-26.392959594726562,-54.40985870361328,-0.7507408261299133,-0.002221520757302642,-0.0009649035637266934,0.9774680733680725,-0.003697924315929413,-0.0002806568518280983,0.001338757574558258,2024-11-20 01:03:49.812850
33.96527862548828,1034.358154296875,26.47879981994629,36,26,16,74,-26.48589515686035,-54.350914001464844,-0.7383862137794495,-0.002715192036703229,-0.06151260435581207,0.9781991243362427,-0.0024758055806159973,0.001246555708348751,-0.0001885443925857544,2024-11-20 01:03:49.857371
33.96527862548828,1034.363037109375,26.47879981994629,36,26,16,74,-26.535463333129883,-54.162899017333984,-0.736941933631897,-0.0029620276764035225,-0.0007236776873469353,0.9777117371559143,-0.005224332213401794,0.0021628220565617085,0.0013384371995925903,2024-11-20 01:03:49.907865
33.929168701171875,1034.3623046875,26.180086135864258,36,26,16,74,-26.585493087768555,-54.092899322509766,-0.6574745178222656,-0.0024683563970029354,-0.002412258880212903,0.9786865711212158,-0.0024750903248786926,0.0012466209009289742,0.0007272139191627502,2024-11-20 01:03:49.959274
33.875,1034.35986328125,26.521041870117188,36,26,16,74,-26.634689331054688,-54.25340270996094,-0.43349015712738037,-0.0009873425588011742,-0.00024122589093167335,0.9799050092697144,0.004549451172351837,-0.00028060004115104675,-0.002021394670009613,2024-11-20 01:03:50.010791
33.875,1034.359619140625,26.521041870117188,36,26,16,74,-26.352039337158203,-54.21565628051758,-0.09024178981781006,-0.0037025348283350468,-0.0009649035637266934,0.9774680733680725,0.00851980596780777,-0.001196826808154583,-0.0011048242449760437,2024-11-20 01:03:50.054678
33.875,1034.357421875,26.32491683959961,36,26,16,74,-26.092348098754883,-54.35177993774414,0.1722029447555542,-0.002221520757302642,-0.0,0.9781991243362427,-0.000642731785774231,-0.0008913241326808929,0.0007277950644493103,2024-11-20 01:03:50.100129
33.875,1034.358154296875,26.32491683959961,36,26,16,74,-25.94350814819336,-54.3297004699707,0.2961263060569763,-0.002221520757302642,-0.0004824517818633467,0.9779554605484009,0.0008846446871757507,0.0003306586295366287,0.0007277801632881165,2024-11-20 01:03:50.142264
34.00138854980469,1034.355224609375,24.6865177154541,36,26,16,74,-25.821247100830078,-54.2724494934082,0.3747994601726532,-0.0019746851176023483,-0.0004824517818633467,0.9781991243362427,0.0011900067329406738,-0.000585515983402729,-0.00018850713968276978,2024-11-20 01:03:50.184641
34.00138854980469,1034.355712890625,24.6865177154541,36,26,16,74,-26.05854606628418,-54.31303405761719,0.8051244020462036,-0.0019746851176023483,-0.002171033062040806,0.9789302349090576,-0.0030857548117637634,0.00033092964440584183,-0.0001883581280708313,2024-11-20 01:03:50.232272
33.91111373901367,1034.348388671875,25.839130401611328,36,26,16,74,-25.869247436523438,-54.41648864746094,-0.36734241247177124,-0.0019746851176023483,-0.00024122589093167335,0.9791739583015442,0.0005793645977973938,0.0006362544372677803,-0.0014100149273872375,2024-11-20 01:03:50.277403
33.875,1034.348876953125,25.778783798217773,36,26,16,74,-25.975881576538086,-54.207183837890625,-0.3438434302806854,-0.0024683563970029354,0.00048558515845797956,0.9784428477287292,0.0005793645977973938,0.0018576700240373611,0.0010334178805351257,2024-11-20 01:03:50.322002
33.875,1034.347412109375,25.778783798217773,36,26,16,74,-26.403053283691406,-54.08088684082031,-0.32365474104881287,-0.0034556991886347532,-0.0014473553746938705,0.9781991243362427,-0.0006422325968742371,2.5042332708835602e-05,-0.0011044144630432129,2024-11-20 01:03:50.372580
33.91111373901367,1034.3408203125,25.70938491821289,36,26,16,74,-26.266706466674805,-54.40596008300781,-0.5971567630767822,-0.0017278495943173766,-0.0004824517818633467,0.9779554605484009,-0.0015583634376525879,0.0006359526887536049,0.00011723488569259644,2024-11-20 01:03:50.424185
33.91111373901367,1034.343017578125,25.70938491821289,36,26,16,74,-26.230167388916016,-54.33838653564453,-0.5183228850364685,-0.002715192036703229,-0.0012061294401064515,0.9794176816940308,-0.0018634051084518433,-0.0005858102813363075,-0.001715056598186493,2024-11-20 01:03:50.475343
33.929168701171875,1034.345458984375,24.897729873657227,36,26,16,74,-26.238943099975586,-54.53599166870117,-0.8487033843994141,-0.0012341781985014677,0.00024279257922898978,0.9784428477287292,0.0018018707633018494,0.0009411666542291641,-0.0014096274971961975,2024-11-20 01:03:50.519457
33.94722366333008,1034.344970703125,26.524059295654297,36,26,16,74,-26.401357650756836,-54.264503479003906,-0.7310190200805664,-0.002221520757302642,-0.0004824517818633467,0.9781991243362427,-0.004305973649024963,0.0018574073910713196,0.001644432544708252,2024-11-20 01:03:50.567971
33.94722366333008,1034.347900390625,26.524059295654297,36,26,16,74,-26.72273826599121,-53.94331741333008,-0.6587910056114197,-0.0029620276764035225,-0.0004824517818633467,0.9799050092697144,-0.002473011612892151,2.4728477001190186e-05,0.00011713802814483643,2024-11-20 01:03:50.611802
33.8569450378418,1034.34619140625,26.189138412475586,36,26,16,74,-26.79298210144043,-54.195404052734375,-0.8593858480453491,-0.0017278495943173766,-0.0016885813092812896,0.9781991243362427,-0.00583251565694809,0.000635538250207901,-0.0004942342638969421,2024-11-20 01:03:50.656418
33.8569450378418,1034.346923828125,26.189138412475586,36,26,16,74,-26.49302864074707,-54.5687255859375,-0.8968456983566284,-0.0017278495943173766,-0.0009649035637266934,0.9796612858772278,-0.0009456351399421692,0.0006356369704008102,0.002254664897918701,2024-11-20 01:03:50.707193
33.94722366333008,1034.345703125,25.818008422851562,36,26,16,74,-26.23682403564453,-54.43878936767578,-0.9122483730316162,-0.0014810138382017612,0.00048558515845797956,0.9784428477287292,0.0024141892790794373,-0.0011968370527029037,-0.0011046379804611206,2024-11-20 01:03:50.758468
33.8930549621582,1034.345703125,26.309829711914062,36,26,16,74,-26.24504852294922,-54.458003997802734,-0.605700671672821,-0.0034556991886347532,-0.0012061294401064515,0.9794176816940308,0.002719394862651825,-0.0024183643981814384,0.0004224926233291626,2024-11-20 01:03:50.809655
33.8930549621582,1034.343505859375,26.309829711914062,36,26,16,74,-26.28736114501953,-54.56199264526367,-0.8744730949401855,-0.0019746851176023483,0.00048558515845797956,0.9796612858772278,-0.0018621906638145447,-0.0002800356596708298,0.0004227161407470703,2024-11-20 01:03:50.852773
33.91111373901367,1034.33740234375,25.661108016967773,36,26,16,74,-26.486919403076172,-54.46759796142578,-1.0458245277404785,-0.0024683563970029354,-0.00024122589093167335,0.9786865711212158,-0.003083348274230957,-0.001196339726448059,0.0010336264967918396,2024-11-20 01:03:50.903974
33.91111373901367,1034.34228515625,26.487852096557617,36,26,16,74,-26.476215362548828,-54.57011795043945,-0.9939590096473694,-0.0019746851176023483,-0.0004824517818633467,0.9796612858772278,-0.0006398409605026245,-0.000890832394361496,-0.00018808990716934204,2024-11-20 01:03:50.955114
33.91111373901367,1034.343505859375,26.487852096557617,36,26,16,74,-26.52190589904785,-54.59336853027344,-0.709699273109436,-0.002715192036703229,-0.0004824517818633467,0.9784428477287292,-0.0015557929873466492,0.0006361445412039757,-0.0004935264587402344,2024-11-20 01:03:50.998217
33.91111373901367,1034.3447265625,25.286962509155273,36,26,16,74,-26.665090560913086,-54.24113464355469,-1.1173875331878662,-0.0014810138382017612,-0.0009649035637266934,0.9796612858772278,0.002109222114086151,-0.00028013065457344055,-0.0001880750060081482,2024-11-20 01:03:51.049371
33.91111373901367,1034.34326171875,25.286962509155273,36,26,16,74,-26.469621658325195,-54.295196533203125,-0.9973790049552917,-0.0024683563970029354,-0.00024122589093167335,0.9779554605484009,-0.002777114510536194,2.5527551770210266e-05,-0.0014096274971961975,2024-11-20 01:03:51.092477
33.8930549621582,1034.34326171875,25.274892807006836,36,26,16,74,-26.299440383911133,-54.52791976928711,-0.8562189340591431,-0.0024683563970029354,0.00024279257922898978,0.9796612858772278,-2.8014183044433594e-05,0.001246943138539791,-0.0007986649870872498,2024-11-20 01:03:51.143663
33.91111373901367,1034.34619140625,25.68222999572754,36,26,16,74,-26.40283966064453,-54.66306686401367,-0.7679709196090698,-0.0017278495943173766,-0.0012061294401064515,0.9791739583015442,-0.0003333538770675659,0.0012466544285416603,0.000117473304271698,2024-11-20 01:03:51.187812
33.91111373901367,1034.3486328125,25.68222999572754,36,26,16,74,-26.4427547454834,-54.75001525878906,-0.4401582181453705,-0.0019746851176023483,-0.00024122589093167335,0.9789302349090576,-0.00033357739448547363,0.0009411638602614403,-0.001104012131690979,2024-11-20 01:03:51.237889
33.82083511352539,1034.3515625,26.270605087280273,36,26,16,74,-26.390869140625,-54.82261657714844,-0.4222516715526581,-0.0024683563970029354,-0.0004824517818633467,0.981610894203186,0.0008880048990249634,-0.0018074540421366692,-0.00201994925737381,2024-11-20 01:03:51.282038
33.82083511352539,1034.354248046875,26.270605087280273,36,26,16,74,-26.424213409423828,-54.82099533081055,-0.4292271137237549,-0.0017278495943173766,-0.0007236776873469353,0.9786865711212158,-0.0036929845809936523,0.0027735168114304543,0.0016453340649604797,2024-11-20 01:03:51.332135
33.80278015136719,1034.351806640625,26.309829711914062,36,26,16,74,-26.479034423828125,-54.72208786010742,-0.04799200966954231,-0.0019746851176023483,-0.0007236776873469353,0.9781991243362427,-0.0009440556168556213,-0.00028081610798835754,-0.0007979720830917358,2024-11-20 01:03:51.376264
33.91111373901367,1034.350341796875,25.875337600708008,36,26,16,74,-26.620573043823242,-54.698753356933594,-0.25411003828048706,-0.0014810138382017612,-0.0009649035637266934,0.9774680733680725,-0.00033377110958099365,2.476479858160019e-05,-0.0011030882596969604,2024-11-20 01:03:51.423904
33.91111373901367,1034.349853515625,25.875337600708008,36,26,16,74,-26.69584846496582,-54.76414489746094,-1.134842038154602,-0.002715192036703229,-0.0007236776873469353,0.9781991243362427,0.003331020474433899,0.002162658143788576,-0.0020192116498947144,2024-11-20 01:03:51.467011
33.766666412353516,1034.349365234375,25.875337600708008,36,26,16,74,-26.680538177490234,-54.738624572753906,-1.5274693965911865,-0.0024683563970029354,-0.0007236776873469353,0.9820983409881592,0.003330335021018982,-0.0005861399695277214,-0.0029352307319641113,2024-11-20 01:03:51.511122
33.766666412353516,1034.34716796875,25.875337600708008,36,26,16,74,-26.73114013671875,-54.70895004272461,-1.5779935121536255,-0.002715192036703229,-0.002171033062040806,0.9786865711212158,0.003940492868423462,0.0012461934238672256,-0.0011023133993148804,2024-11-20 01:03:51.561174
33.875,1034.35302734375,26.385263442993164,36,26,16,74,-26.60195541381836,-54.678565979003906,-1.4138131141662598,-0.002221520757302642,-0.0012061294401064515,0.9789302349090576,0.0027185678482055664,2.4431385099887848e-05,-0.002018280327320099,2024-11-20 01:03:51.605274
33.875,1034.354248046875,26.385263442993164,36,26,16,74,-26.40947914123535,-54.738975524902344,-0.9792303442955017,-0.0019746851176023483,-0.00024122589093167335,0.9794176816940308,-0.001252107322216034,0.000635034404695034,-0.0007964968681335449,2024-11-20 01:03:51.648318
33.838890075683594,1034.354248046875,26.303794860839844,36,26,16,74,-26.266986846923828,-54.466819763183594,-1.1453297138214111,-0.0019746851176023483,-0.00024122589093167335,0.9796612858772278,0.003023497760295868,2.416316419839859e-05,0.0004251226782798767,2024-11-20 01:03:51.692400
33.91111373901367,1034.362548828125,25.9899959564209,36,26,16,74,-26.187789916992188,-54.83460998535156,-1.7833844423294067,-0.002221520757302642,-0.0009649035637266934,0.9781991243362427,-0.001557856798171997,0.0015511661767959595,0.0010359063744544983,2024-11-20 01:03:51.743603
33.91111373901367,1034.358154296875,25.9899959564209,36,26,16,74,-26.127883911132812,-54.70075607299805,-1.4184151887893677,-0.002715192036703229,-0.00024122589093167335,0.9796612858772278,0.0008856132626533508,0.0018564127385616302,0.00042500346899032593,2024-11-20 01:03:51.786798
33.94722366333008,1034.35693359375,25.458948135375977,36,26,16,74,-26.26662254333496,-54.16920471191406,-1.6743229627609253,-0.0017278495943173766,-0.0,0.9791739583015442,0.0008858293294906616,-0.0018087336793541908,0.001952238380908966,2024-11-20 01:03:51.837949
33.94722366333008,1034.361083984375,25.458948135375977,36,26,16,74,-26.16863250732422,-54.1638069152832,-1.6252388954162598,-0.002715192036703229,-0.0007236776873469353,0.9799050092697144,-0.0006416663527488708,0.0015507880598306656,-0.0007964745163917542,2024-11-20 01:03:51.881018
33.8569450378418,1034.360107421875,24.976179122924805,36,26,16,74,-26.386659622192383,-54.1710319519043,-1.195404052734375,-0.0019746851176023483,-0.0014473553746938705,0.9789302349090576,0.0005801990628242493,-0.001197701320052147,-0.0004908144474029541,2024-11-20 01:03:51.932160
33.80278015136719,1034.357421875,25.612831115722656,36,26,16,74,-26.5960750579834,-54.397865295410156,-1.0368120670318604,-0.002715192036703229,-0.0,0.9794176816940308,0.0002749338746070862,-0.0015028053894639015,-0.0011015310883522034,2024-11-20 01:03:51.976280
33.80278015136719,1034.352783203125,25.612831115722656,36,26,16,74,-26.45624351501465,-54.56660842895508,-1.1389846801757812,-0.0014810138382017612,-0.002894710749387741,0.9786865711212158,0.0033293962478637695,0.0006351405754685402,-0.0020178556442260742,2024-11-20 01:03:52.026335
33.80278015136719,1034.3525390625,25.64904022216797,36,26,16,74,-26.6060733795166,-54.45391845703125,-0.8235691785812378,-0.0017278495943173766,0.00024279257922898978,0.9799050092697144,0.000885792076587677,-0.0011973325163125992,0.0007306933403015137,2024-11-20 01:03:52.070447
33.80278015136719,1034.352783203125,25.64904022216797,36,26,16,74,-26.729164123535156,-54.67557144165039,-0.6458171010017395,-0.002715192036703229,-0.0016885813092812896,0.9801487326622009,0.0021075308322906494,-0.0005863457918167114,-0.0026288628578186035,2024-11-20 01:03:52.120498
33.838890075683594,1034.356689453125,26.29474449157715,36,26,16,74,-26.47109031677246,-54.61341094970703,-0.1132170781493187,-0.0014810138382017612,-0.00024122589093167335,0.9803923964500427,-0.00033595412969589233,0.001551574096083641,0.0004257410764694214,2024-11-20 01:03:52.164611
33.91111373901367,1034.362060546875,25.996030807495117,36,26,16,74,-26.38974952697754,-54.465965270996094,-0.17501884698867798,-0.0029620276764035225,-0.0004824517818633467,0.9813672304153442,0.001191265881061554,0.0003299396485090256,-0.0004902034997940063,2024-11-20 01:03:52.212233
33.91111373901367,1034.359619140625,25.996030807495117,36,26,16,74,-26.610116958618164,-54.40129470825195,-0.14343875646591187,-0.0014810138382017612,-0.00024122589093167335,0.9801487326622009,0.0024129003286361694,0.0024676788598299026,-0.0026279687881469727,2024-11-20 01:03:52.255291
33.875,1034.358154296875,26.2042236328125,36,26,16,74,-26.774797439575195,-54.264854431152344,-0.05708322674036026,-0.002715192036703229,-0.0007236776873469353,0.9789302349090576,0.0005800202488899231,0.0012457119300961494,-0.002016514539718628,2024-11-20 01:03:52.299398
33.875,1034.3544921875,26.2042236328125,36,26,16,74,-26.958175659179688,-54.28480529785156,-0.4633364677429199,-0.0017278495943173766,-0.0014473553746938705,0.9789302349090576,-0.0006413981318473816,0.0015509333461523056,0.00012148171663284302,2024-11-20 01:03:52.342441
33.91111373901367,1034.352783203125,24.629188537597656,36,26,16,74,-27.248178482055664,-54.70578384399414,-0.7535014152526855,-0.0024683563970029354,-0.0019298071274533868,0.9789302349090576,0.002413123846054077,0.002772272564470768,-0.001405559480190277,2024-11-20 01:03:52.386560
33.91111373901367,1034.3486328125,24.629188537597656,36,26,16,74,-26.798812866210938,-54.87493896484375,-0.9240103960037231,-0.0019746851176023483,0.00024279257922898978,0.9799050092697144,0.0021075457334518433,0.0009395936504006386,0.00012170523405075073,2024-11-20 01:03:52.429624
33.78472137451172,1034.35302734375,25.139114379882812,36,26,16,74,-26.694612503051758,-54.381874084472656,-1.1125109195709229,-0.0029620276764035225,-0.002894710749387741,0.9786865711212158,-0.0009467005729675293,2.329424023628235e-05,-0.0010999366641044617,2024-11-20 01:03:52.480765
33.875,1034.350341796875,25.98697853088379,36,26,16,74,-26.709718704223633,-54.41777038574219,-1.0242058038711548,-0.0009873425588011742,0.0007283777231350541,0.9777117371559143,0.0002750083804130554,-0.0015037422999739647,-0.0010998472571372986,2024-11-20 01:03:52.531857
33.875,1034.349853515625,25.98697853088379,36,26,16,74,-26.833084106445312,-54.530662536621094,-0.9980311989784241,-0.0034556991886347532,-0.0012061294401064515,0.9779554605484009,0.003940209746360779,-0.0015036966651678085,0.0007327944040298462,2024-11-20 01:03:52.574899
33.80278015136719,1034.34814453125,26.28870964050293,36,26,16,74,-26.789016723632812,-54.60367965698242,-1.0161298513412476,-0.0014810138382017612,0.0007283777231350541,0.9803923964500427,-0.0027788206934928894,0.0036883442662656307,0.0022599995136260986,2024-11-20 01:03:52.618983
33.80278015136719,1034.353759765625,26.28870964050293,36,26,16,74,-26.838659286499023,-54.338775634765625,-0.6161960959434509,-0.0012341781985014677,0.0007283777231350541,0.9781991243362427,-0.0021675899624824524,-0.0002823891118168831,-0.00018289685249328613,2024-11-20 01:03:52.669006
33.91111373901367,1034.357177734375,25.86326789855957,36,26,16,74,-26.90664291381836,-54.34233093261719,-1.120492696762085,-0.0019746851176023483,-0.002412258880212903,0.9813672304153442,0.0021086856722831726,-0.0005878256633877754,0.0004283040761947632,2024-11-20 01:03:52.713192
33.91111373901367,1034.3603515625,25.86326789855957,36,26,16,74,-26.74557876586914,-54.25752258300781,-0.7208060026168823,-0.0019746851176023483,-0.0014473553746938705,0.9777117371559143,-0.002472415566444397,-0.001809585839509964,-0.001709677278995514,2024-11-20 01:03:52.763801
33.983333587646484,1034.360595703125,25.29903221130371,36,26,16,74,-26.64592933654785,-54.40691375732422,-0.6447479724884033,-0.019253181293606758,-0.0349777527153492,1.0279133319854736,0.09404567629098892,-0.06717286258935928,0.001650094985961914,2024-11-20 01:03:52.807425
33.8930549621582,1034.363037109375,26.155946731567383,36,26,16,74,-26.583654403686523,-54.854034423828125,-0.6432737112045288,-0.017772166058421135,0.0016995479818433523,0.9467622637748718,0.0021102800965309143,-0.0005885008722543716,-0.00048788636922836304,2024-11-20 01:03:52.855313
33.8930549621582,1034.36474609375,26.155946731567383,36,26,16,74,-26.38153839111328,-54.77961730957031,-0.9780557751655579,0.006788485683500767,0.0031563034281134605,0.9979385733604431,-0.007361054420471191,0.007659766357392073,-0.0017100349068641663,2024-11-20 01:03:52.898787
33.78472137451172,1034.3642578125,25.289979934692383,36,26,16,74,-26.221271514892578,-54.57426071166992,-1.5559829473495483,-0.01135443989187479,-0.01905684731900692,0.9998881816864014,0.004551462829113007,-0.0005866382271051407,-0.0010988712310791016,2024-11-20 01:03:52.950243
33.78472137451172,1034.364501953125,25.289979934692383,36,26,16,74,-26.287216186523438,-54.425621032714844,-1.449998378753662,0.01260718796402216,0.018695026636123657,0.9908714294433594,-0.006748944520950317,0.002773500047624111,-0.0026262402534484863,2024-11-20 01:03:53.001369
33.94722366333008,1034.363037109375,27.127521514892578,36,26,16,74,-26.529932022094727,-54.18084716796875,-1.3086544275283813,-0.01826583780348301,-0.009407809935510159,0.969669759273529,-0.004303857684135437,-0.002724909223616123,0.005314439535140991,2024-11-20 01:03:53.045413
33.875,1034.367431640625,26.02318572998047,36,26,16,74,-26.55428695678711,-54.2309455871582,-1.0355665683746338,0.001212229602970183,0.0016995479818433523,0.9842915534973145,-0.015298575162887573,0.007354233413934708,-0.002931758761405945,2024-11-20 01:03:53.089856
33.875,1034.371826171875,26.02318572998047,36,26,16,74,-26.460590362548828,-54.500911712646484,-0.8250738978385925,-0.0019746851176023483,-0.002653484931215644,0.9813672304153442,0.005470283329486847,-0.0018084952607750893,0.0037871673703193665,2024-11-20 01:03:53.133233
33.80278015136719,1034.371337890625,26.31888198852539,36,26,16,74,-26.517492294311523,-54.478553771972656,-1.0496678352355957,-0.0007405069191008806,0.0012139629106968641,0.9755184650421143,-0.003997534513473511,0.003078189678490162,-0.0014049336314201355,2024-11-20 01:03:53.181197
33.80278015136719,1034.375,26.31888198852539,36,26,16,74,-26.43321418762207,-54.444400787353516,-1.3844326734542847,-0.002715192036703229,-0.002412258880212903,0.9811235070228577,0.0030266866087913513,-0.0021135546267032623,0.0007326006889343262,2024-11-20 01:03:53.224711
33.91111373901367,1034.376220703125,26.400348663330078,36,26,16,74,-26.23270034790039,-54.42529296875,-1.5796406269073486,-0.011107604019343853,-0.013267423957586288,0.9781991243362427,-2.6971101760864258e-05,0.000329568050801754,0.0004272758960723877,2024-11-20 01:03:53.277415
33.8569450378418,1034.381103515625,26.445608139038086,36,26,16,74,-26.577741622924805,-54.36714553833008,-2.0905094146728516,0.007515823468565941,0.005098644178360701,0.9842915534973145,-0.0030822008848190308,0.0036895512603223324,-0.00445924699306488,2024-11-20 01:03:53.328240
33.8569450378418,1034.3828125,26.445608139038086,36,26,16,74,-26.679521560668945,-54.3458366394043,-1.7963486909866333,-0.009626590646803379,-0.007719228509813547,0.9784428477287292,0.001499369740486145,-0.0011974796652793884,0.003481641411781311,2024-11-20 01:03:53.383071
33.766666412353516,1034.383544921875,25.727489471435547,36,26,16,74,-26.631025314331055,-54.30564880371094,-1.4541733264923096,-0.012341782450675964,-0.010613939724862576,0.9799050092697144,0.004248857498168945,-0.003335488960146904,0.0013437420129776,2024-11-20 01:03:53.462059
33.82083511352539,1034.3798828125,28.40082550048828,36,26,16,74,-26.47376251220703,-54.564815521240234,-1.319527268409729,-0.005183548666536808,-0.0038596142549067736,0.9774680733680725,-0.007356628775596619,0.00032941438257694244,0.003176279366016388,2024-11-20 01:03:53.527829
33.838890075683594,1034.377685546875,25.208511352539062,36,26,16,74,-26.212459564208984,-54.56740188598633,-1.2359706163406372,0.003879134776070714,0.0024279258213937283,0.9789302349090576,-0.0033863335847854614,0.0021620295010507107,-0.0020157992839813232,2024-11-20 01:03:53.584923
33.766666412353516,1034.376953125,24.834365844726562,36,26,16,74,-26.25473976135254,-55.02103805541992,-1.3471864461898804,0.0009697836940176785,0.0016995479818433523,0.982342004776001,0.0015008524060249329,-0.0011973483487963676,-0.0014050304889678955,2024-11-20 01:03:53.657972
33.766666412353516,1034.3818359375,24.834365844726562,36,26,16,74,-26.567182540893555,-54.940521240234375,-1.3172553777694702,0.00048489184700883925,0.0007283777231350541,0.9833167791366577,-0.0018591061234474182,-0.0008916892111301422,-0.0014049708843231201,2024-11-20 01:03:53.721852
33.80278015136719,1034.3837890625,25.045578002929688,36,26,16,74,-26.536367416381836,-54.72019577026367,-1.0007604360580444,-0.0074050696566700935,-0.0065130991861224174,0.9801487326622009,-0.0030805766582489014,-0.000891614705324173,0.0016492083668708801,2024-11-20 01:03:53.769005
33.80278015136719,1034.37890625,26.02016830444336,36,26,16,74,-26.508447647094727,-54.58549118041992,-1.0495535135269165,0.00024244592350441962,-0.002653484931215644,0.9830730557441711,-0.004301942884922028,0.0015517156571149826,0.0013436675071716309,2024-11-20 01:03:53.853111
33.73055648803711,1034.37255859375,26.916309356689453,35,26,16,74,-26.350130081176758,-54.48014450073242,-1.0498408079147339,0.0016971214208751917,0.0016995479818433523,0.9833167791366577,-0.0021638870239257812,0.0012465333566069603,-0.0014048963785171509,2024-11-20 01:03:53.915597
33.838890075683594,1034.37744140625,26.77449607849121,35,26,16,74,-26.496505737304688,-54.61063766479492,-1.4249643087387085,0.061338815838098526,0.0012139629106968641,0.9811235070228577,-0.0030802786350250244,0.0021630856208503246,-0.00018335133790969849,2024-11-20 01:03:53.996667
33.82083511352539,1034.373779296875,25.627918243408203,35,26,16,74,-26.72991943359375,-54.76980209350586,-1.8402470350265503,0.001212229602970183,0.0009711703169159591,0.9781991243362427,-0.0012475773692131042,-0.0011962167918682098,-0.0010996311902999878,2024-11-20 01:03:54.060456
33.78472137451172,1034.369384765625,26.086549758911133,36,26,16,74,-27.02623176574707,-54.62846755981445,-0.8334333300590515,-0.004443041514605284,-0.0038596142549067736,0.9789302349090576,0.0030287206172943115,-0.0033344319090247154,0.0004272758960723877,2024-11-20 01:03:54.108797
33.78472137451172,1034.369384765625,26.086549758911133,36,26,16,74,-27.43008804321289,-54.344993591308594,-0.04777185618877411,-0.0007405069191008806,0.0009711703169159591,0.9813672304153442,0.0024178102612495422,-0.0018070954829454422,-0.0014050453901290894,2024-11-20 01:03:54.153366
33.82083511352539,1034.37158203125,26.155946731567383,36,26,16,74,-27.444120407104492,-54.299293518066406,0.11564946174621582,-0.004936712794005871,-0.006271873135119677,0.984535276889801,0.00211256742477417,-0.0021123280748724937,0.00012218952178955078,2024-11-20 01:03:54.195558
33.82083511352539,1034.369384765625,26.155946731567383,36,26,16,74,-27.720123291015625,-54.258628845214844,0.3257557153701782,-0.0009873425588011742,0.00024279257922898978,0.9842915534973145,-0.0012482181191444397,0.001552908681333065,0.0013438686728477478,2024-11-20 01:03:54.243954
33.766666412353516,1034.36962890625,26.400348663330078,36,26,16,74,-27.471786499023438,-54.0775260925293,0.13239726424217224,0.0041215806268155575,0.007526569999754429,1.0281569957733154,0.009441651403903961,-0.0018068552017211914,-0.0004886165261268616,2024-11-20 01:03:54.300467
33.78472137451172,1034.3671875,26.487852096557617,36,26,16,74,-27.381065368652344,-54.14949417114258,-0.6205829381942749,0.00024244592350441962,0.006555399391800165,0.9767369627952576,-2.7120113372802734e-05,-0.0005848230794072151,-0.0001828223466873169,2024-11-20 01:03:54.359084
33.78472137451172,1034.36572265625,26.487852096557617,36,26,16,74,-27.05083465576172,-53.97431182861328,-0.635930597782135,-0.004689877387136221,-0.003377162618562579,0.9711319208145142,-0.0018595978617668152,0.002468932420015335,-0.0010990798473358154,2024-11-20 01:03:54.409660
33.766666412353516,1034.369384765625,25.241703033447266,36,26,16,74,-26.970144271850586,-53.85725021362305,-0.40642714500427246,0.001212229602970183,-0.00024122589093167335,0.9794176816940308,-2.753734588623047e-05,-0.00211222842335701,0.00012211501598358154,2024-11-20 01:03:54.452655
33.6944465637207,1034.36962890625,25.703350067138672,36,26,16,74,-27.178804397583008,-53.90796661376953,-0.579314112663269,-0.0034556991886347532,-0.004342066124081612,0.9760059118270874,0.00027870386838912964,-0.002723151817917824,0.0028708800673484802,2024-11-20 01:03:54.495428
33.6944465637207,1034.36669921875,25.703350067138672,36,26,16,74,-27.146255493164062,-54.0884895324707,-1.1990630626678467,-0.0017278495943173766,-0.00024122589093167335,0.9801487326622009,-0.001553758978843689,-0.0018067024648189545,0.0010382011532783508,2024-11-20 01:03:54.546764
33.80278015136719,1034.36572265625,26.24646759033203,34,25,15,70,-27.263736724853516,-54.235389709472656,-1.4229429960250854,-0.002221520757302642,-0.0012061294401064515,0.9791739583015442,-0.003080397844314575,0.0009421585127711296,-0.0026265308260917664,2024-11-20 01:03:54.589144
33.80278015136719,1034.36181640625,26.24646759033203,34,25,15,70,-27.291717529296875,-54.21458435058594,-1.2501003742218018,-0.0007405069191008806,0.00024279257922898978,0.9808798432350159,0.0018067285418510437,0.0018582213670015335,-0.00018301606178283691,2024-11-20 01:03:54.632495
33.73055648803711,1034.361572265625,25.280927658081055,34,25,15,70,-27.327009201049805,-54.326839447021484,-1.3358526229858398,-0.0037025348283350468,-0.002894710749387741,0.9779554605484009,0.003333747386932373,-0.000890650786459446,-0.000793851912021637,2024-11-20 01:03:54.680375
33.73055648803711,1034.357421875,25.280927658081055,34,25,15,70,-27.072227478027344,-54.14049530029297,-1.4668009281158447,-0.0012341781985014677,-0.0007236776873469353,0.9813672304153442,-0.0027752891182899475,0.001858338713645935,-0.0010992437601089478,2024-11-20 01:03:54.723774
33.80278015136719,1034.35693359375,26.412418365478516,33,24,14,68,-26.895679473876953,-54.22908401489258,-1.2974672317504883,-0.0019746851176023483,-0.0014473553746938705,0.9791739583015442,-0.0018590539693832397,2.5813467800617218e-05,-0.0010989904403686523,2024-11-20 01:03:54.775235
33.65833282470703,1034.358642578125,25.594728469848633,33,24,14,68,-26.773984909057617,-54.17875289916992,-0.8138416409492493,-0.0024683563970029354,-0.0019298071274533868,0.9818546175956726,-0.0006371214985847473,0.0018579661846160889,0.0019553303718566895,2024-11-20 01:03:54.826452
33.65833282470703,1034.357666015625,25.594728469848633,33,24,14,68,-26.568750381469727,-54.12276840209961,-1.233390212059021,-0.0014810138382017612,-0.0007236776873469353,0.9803923964500427,0.0008899793028831482,-0.0033340873196721077,0.0013444870710372925,2024-11-20 01:03:54.869536
33.80278015136719,1034.35693359375,26.62061309814453,33,24,14,68,-26.583232879638672,-54.244991302490234,-1.2997673749923706,-0.004443041514605284,-0.0016885813092812896,0.9791739583015442,-0.0006366968154907227,0.0003311755135655403,-0.00018279999494552612,2024-11-20 01:03:54.920654
33.80278015136719,1034.354248046875,26.62061309814453,33,24,14,69,-26.716873168945312,-54.187400817871094,-1.3307507038116455,-0.0007405069191008806,0.00024279257922898978,0.9811235070228577,-0.0003314018249511719,-0.001806706190109253,-0.002015121281147003,2024-11-20 01:03:54.963721
33.80278015136719,1034.35302734375,25.60076141357422,33,24,14,69,-26.892210006713867,-54.156490325927734,-1.161267876625061,-0.0029620276764035225,-0.002171033062040806,0.9825856685638428,0.0027235448360443115,-0.0033337725326418877,0.00012295693159103394,2024-11-20 01:03:55.007865
33.712501525878906,1034.3505859375,26.068445205688477,33,24,14,69,-26.89223861694336,-54.18352127075195,-1.1942650079727173,-0.0009873425588011742,0.0007283777231350541,0.9808798432350159,-0.005217239260673523,0.0015528863295912743,0.0010393857955932617,2024-11-20 01:03:55.051969
33.712501525878906,1034.34814453125,26.068445205688477,33,24,14,69,-26.72138023376465,-54.291683197021484,-1.1810214519500732,-0.002221520757302642,-0.00024122589093167335,0.9803923964500427,0.0030292198061943054,-0.0005849692970514297,-0.0020147114992141724,2024-11-20 01:03:55.095029
33.766666412353516,1034.348876953125,25.422740936279297,33,24,14,69,-26.68693733215332,-54.361106872558594,-1.1206402778625488,-0.0007405069191008806,0.0007283777231350541,0.9813672304153442,-0.0058278366923332214,0.0018583359196782112,-0.00048751384019851685,2024-11-20 01:03:55.146137
33.766666412353516,1034.352294921875,25.422740936279297,33,24,14,69,-26.856332778930664,-54.341461181640625,-1.0026501417160034,-0.002221520757302642,-0.0009649035637266934,0.9803923964500427,-0.0009407475590705872,2.5425106287002563e-05,0.0010397210717201233,2024-11-20 01:03:55.189193
33.78472137451172,1034.35107421875,25.896459579467773,33,24,14,69,-26.913694381713867,-54.376312255859375,-0.9898681044578552,-0.002715192036703229,-0.0004824517818633467,0.9801487326622009,-0.0012459233403205872,0.0009416649118065834,-0.0007928609848022461,2024-11-20 01:03:55.240302
33.78472137451172,1034.352294921875,25.896459579467773,33,24,14,69,-26.72897720336914,-54.23265838623047,-1.5056010484695435,-0.0012341781985014677,0.00024279257922898978,0.9813672304153442,-0.000329434871673584,-0.0005853762850165367,0.001650683581829071,2024-11-20 01:03:55.283870
33.766666412353516,1034.352783203125,25.546451568603516,33,24,14,69,-26.69146728515625,-54.213253021240234,-1.6346298456192017,-0.002221520757302642,-0.0031359365675598383,0.9806361198425293,0.0011971816420555115,2.5713816285133362e-05,0.001956351101398468,2024-11-20 01:03:55.334435
33.80278015136719,1034.353759765625,25.745594024658203,33,24,14,69,-26.580425262451172,-54.216522216796875,-1.796684741973877,-0.0014810138382017612,-0.0,0.9801487326622009,-0.0030789151787757874,0.0015526646748185158,-0.0010978281497955322,2024-11-20 01:03:55.378528
33.80278015136719,1034.355224609375,25.745594024658203,33,24,14,69,-26.41347312927246,-54.07338333129883,-1.9898271560668945,-0.0024683563970029354,-0.002171033062040806,0.9801487326622009,0.002418622374534607,-0.0008908035233616829,-0.0010977089405059814,2024-11-20 01:03:55.428598
33.80278015136719,1034.35400390625,26.693029403686523,33,24,14,69,-26.613737106323242,-54.21283721923828,-1.6426773071289062,-0.0017278495943173766,0.00024279257922898978,0.9803923964500427,-0.001551806926727295,-0.0015015741810202599,-0.0007920265197753906,2024-11-20 01:03:55.472692
33.80278015136719,1034.351318359375,26.693029403686523,33,24,14,69,-26.79637908935547,-54.17741012573242,-1.5194823741912842,-0.0017278495943173766,-0.0004824517818633467,0.9808798432350159,0.00272456556558609,-0.001501479186117649,-0.00048670917749404907,2024-11-20 01:03:55.515747
33.766666412353516,1034.354736328125,27.56804847717285,33,24,14,69,-26.89768409729004,-54.18592834472656,-1.6896154880523682,-0.0017278495943173766,-0.0012061294401064515,0.9791739583015442,-0.001856967806816101,-0.0005850596353411674,-0.00018114596605300903,2024-11-20 01:03:55.563317
33.875,1034.354736328125,26.946481704711914,33,24,14,69,-26.981796264648438,-54.13361740112305,-2.1628689765930176,-0.0024683563970029354,-0.00024122589093167335,0.9784428477287292,-0.00033026188611984253,-0.0002793259918689728,-0.0001811012625694275,2024-11-20 01:03:55.607425
33.875,1034.354248046875,26.946481704711914,33,24,15,69,-26.893949508666992,-54.09071350097656,-1.678533673286438,-0.0017278495943173766,-0.00024122589093167335,0.9803923964500427,0.0018080249428749084,-0.0002789478749036789,-0.0010975450277328491,2024-11-20 01:03:55.650474
33.74861145019531,1034.354248046875,27.027950286865234,33,24,15,69,-27.04977035522461,-54.290733337402344,-1.812936782836914,-0.0014810138382017612,0.00024279257922898978,0.9784428477287292,0.003640115261077881,-0.0018056295812129974,-0.0020134523510932922,2024-11-20 01:03:55.694582
33.74861145019531,1034.3515625,27.027950286865234,33,24,15,69,-27.13106918334961,-54.27372360229492,-1.7130966186523438,-0.0017278495943173766,-0.0004824517818633467,0.9784428477287292,-0.0009407997131347656,-0.0005840081721544266,0.00012459605932235718,2024-11-20 01:03:55.738197
33.80278015136719,1034.3486328125,25.302047729492188,33,24,15,69,-26.98385238647461,-54.13392639160156,-1.5682449340820312,-0.0014810138382017612,0.00048558515845797956,0.9801487326622009,-0.003994457423686981,0.001553783193230629,0.0007354617118835449,2024-11-20 01:03:55.785908
33.80278015136719,1034.34912109375,25.302047729492188,33,24,14,69,-26.850507736206055,-54.024658203125,-1.4903358221054077,-0.0029620276764035225,-0.0014473553746938705,0.982342004776001,0.00272524356842041,-0.002722407691180706,-0.00018068403005599976,2024-11-20 01:03:55.829001
33.73055648803711,1034.349609375,24.69255256652832,33,24,14,69,-27.058250427246094,-53.992733001708984,-1.4253851175308228,-0.0012341781985014677,0.061426520347595215,0.9781991243362427,-0.0033833831548690796,0.0012480346485972404,-0.0001805424690246582,2024-11-20 01:03:55.873126
33.73055648803711,1034.353515625,24.69255256652832,33,24,14,69,-27.072189331054688,-53.952510833740234,-1.3108811378479004,-0.0019746851176023483,-0.0012061294401064515,0.9818546175956726,-0.002466559410095215,0.00033155083656311035,0.001651756465435028,2024-11-20 01:03:55.923697
33.73055648803711,1034.358154296875,25.199460983276367,33,24,14,69,-26.89071273803711,-54.08179473876953,-1.1991291046142578,-0.0019746851176023483,-0.06127138063311577,0.981610894203186,0.0018097758293151855,-0.002112015150487423,-0.0014025717973709106,2024-11-20 01:03:55.967270
33.80278015136719,1034.357421875,26.05637550354004,33,24,15,69,-26.81198501586914,-54.22573471069336,-1.5165479183197021,-0.0017278495943173766,-0.0009649035637266934,0.9791739583015442,0.0005877390503883362,-0.0015011057257652283,-0.0001806691288948059,2024-11-20 01:03:56.011396
33.80278015136719,1034.359375,26.05637550354004,33,24,15,69,-27.042510986328125,-54.221126556396484,-2.108217716217041,-0.002221520757302642,-0.0004824517818633467,0.9796612858772278,-0.0015498250722885132,0.002163874451071024,0.0004300549626350403,2024-11-20 01:03:56.054502
33.875,1034.361572265625,25.045578002929688,33,24,15,69,-26.892486572265625,-54.2950325012207,-1.249497652053833,-0.0019746851176023483,-0.0007236776873469353,0.9803923964500427,-0.002160973846912384,0.00033122021704912186,0.0013463422656059265,2024-11-20 01:03:56.103161
33.875,1034.3583984375,25.045578002929688,33,24,15,69,-27.25961685180664,-54.23072814941406,-0.6325610280036926,-0.002221520757302642,-0.0014473553746938705,0.9794176816940308,0.0015044286847114563,0.0006363131105899811,-0.001096874475479126,2024-11-20 01:03:56.146375
33.712501525878906,1034.362060546875,26.373193740844727,33,24,14,69,-27.536006927490234,-54.16604995727539,-0.3294312655925751,-0.00024683563970029354,-0.06127138063311577,0.9801487326622009,0.0018099844455718994,-0.001196233555674553,-0.0017077997326850891,2024-11-20 01:03:56.190550
33.78472137451172,1034.36474609375,24.20073127746582,33,24,14,69,-27.46095085144043,-54.2657470703125,-0.6629778742790222,-0.0019746851176023483,-0.0016885813092812896,0.9820983409881592,0.002420492470264435,-0.003028271719813347,-0.00048597902059555054,2024-11-20 01:03:56.234706
33.78472137451172,1034.367431640625,24.20073127746582,33,24,14,69,-27.366090774536133,-54.286582946777344,-0.9535005688667297,-0.0014810138382017612,-0.0004824517818633467,0.9784428477287292,-0.0024657249450683594,-0.0005848687142133713,0.00043026357889175415,2024-11-20 01:03:56.278502
33.80278015136719,1034.364990234375,26.560266494750977,33,24,14,69,-27.427900314331055,-54.233116149902344,-1.0593514442443848,-0.0019746851176023483,-0.0004824517818633467,0.9772243499755859,0.0024212002754211426,-0.0021118829026818275,-0.0010966584086418152,2024-11-20 01:03:56.329101
33.80278015136719,1034.3681640625,26.560266494750977,33,24,15,69,-27.833833694458008,-54.0535774230957,-0.02169123664498329,-0.0037025348283350468,-0.003377162618562579,0.9779554605484009,-0.00277092307806015,0.0018585845828056335,-0.00018034130334854126,2024-11-20 01:03:56.378064
33.712501525878906,1034.371826171875,26.152929306030273,33,24,15,69,-27.367080688476562,-53.63102340698242,0.4942633807659149,-0.0007405069191008806,0.00024279257922898978,0.9840478897094727,-0.0009384676814079285,0.0006367713212966919,-0.001096576452255249,2024-11-20 01:03:56.430261
33.78472137451172,1034.375244140625,25.962839126586914,33,24,15,69,-27.205968856811523,-53.537025451660156,0.2371540069580078,-0.0037025348283350468,-0.002653484931215644,0.9779554605484009,0.0027270913124084473,-0.0015010843053460121,0.0007359087467193604,2024-11-20 01:03:56.475594
33.78472137451172,1034.377685546875,25.962839126586914,33,24,15,69,-27.03597640991211,-53.513065338134766,0.3641558289527893,-0.0007405069191008806,0.00048558515845797956,0.9786865711212158,-0.000938020646572113,0.00033148378133773804,0.00012503564357757568,2024-11-20 01:03:56.525137
33.80278015136719,1034.380615234375,25.94775390625,33,24,15,69,-27.023874282836914,-53.751075744628906,0.14804624021053314,-0.0019746851176023483,-0.0007236776873469353,0.9808798432350159,-0.004908077418804169,0.0027745021507143974,0.002263076603412628,2024-11-20 01:03:56.574934
33.80278015136719,1034.375732421875,25.94775390625,33,24,15,69,-27.110902786254883,-53.997169494628906,-0.6764551401138306,-0.0024683563970029354,-0.002171033062040806,0.9796612858772278,-0.0003266334533691406,0.0006367247551679611,0.0007361173629760742,2024-11-20 01:03:56.620218
33.74861145019531,1034.372802734375,25.003334045410156,33,24,15,69,-26.84842300415039,-54.099159240722656,-1.0480382442474365,-0.0017278495943173766,-0.0007236776873469353,0.9796612858772278,-0.0003266558051109314,0.0003311820328235626,-0.0010965168476104736,2024-11-20 01:03:56.672558
33.64027786254883,1034.37353515625,25.3804988861084,33,24,15,69,-27.01681900024414,-54.07912826538086,-1.5274980068206787,-0.004689877387136221,-0.0007236776873469353,0.9791739583015442,0.0008949786424636841,0.0015525463968515396,0.0007360279560089111,2024-11-20 01:03:56.717404
33.64027786254883,1034.3740234375,25.3804988861084,33,24,15,69,-27.087997436523438,-54.118289947509766,-1.103618860244751,-0.0007405069191008806,0.0009711703169159591,0.9813672304153442,-0.0003268718719482422,-0.0018071942031383514,-0.001096479594707489,2024-11-20 01:03:56.763132
33.766666412353516,1034.37353515625,26.071462631225586,33,24,15,69,-26.900917053222656,-54.270668029785156,-0.986786425113678,-0.004443041514605284,-0.0038596142549067736,0.9796612858772278,0.0005894005298614502,-0.0015015872195363045,-0.0010962113738059998,2024-11-20 01:03:56.808025
33.766666412353516,1034.372802734375,26.071462631225586,33,24,15,69,-26.963132858276367,-54.381195068359375,-1.3309879302978516,-0.0014810138382017612,0.00024279257922898978,0.9791739583015442,-0.0021589994430541992,-0.0011959811672568321,-0.0014014914631843567,2024-11-20 01:03:56.851691
33.712501525878906,1034.3701171875,26.116722106933594,33,24,15,69,-27.055923461914062,-54.406436920166016,-1.302290439605713,-0.0034556991886347532,-0.002653484931215644,0.9796612858772278,-0.00307464599609375,0.0012475494295358658,0.002874501049518585,2024-11-20 01:03:56.903219
33.73055648803711,1034.369873046875,25.965856552124023,33,24,15,69,-27.02725601196289,-54.53710174560547,-1.1855674982070923,-0.0019746851176023483,-0.0004824517818633467,0.981610894203186,-0.004296019673347473,0.0006366316229104996,-0.0010960325598716736,2024-11-20 01:03:56.954989
33.73055648803711,1034.375,25.965856552124023,33,24,15,69,-26.842042922973633,-54.523704528808594,-1.067507266998291,-0.0009873425588011742,-0.0,0.981610894203186,0.003034062683582306,-0.0030280277132987976,-0.0014014169573783875,2024-11-20 01:03:56.998584
33.64027786254883,1034.375732421875,25.326187133789062,33,24,15,69,-26.62269401550293,-54.30328369140625,-1.254593014717102,-0.003208863316103816,-0.0,0.9794176816940308,0.0005908012390136719,-0.00027929432690143585,-0.00048479437828063965,2024-11-20 01:03:57.046638
33.64027786254883,1034.37451171875,25.326187133789062,33,24,15,69,-26.623878479003906,-54.32100296020508,-1.452954649925232,-0.0009873425588011742,0.0007283777231350541,0.9781991243362427,-0.0012420937418937683,-0.0002793269231915474,-0.0010953620076179504,2024-11-20 01:03:57.090166
33.712501525878906,1034.372314453125,26.071462631225586,33,24,15,69,-26.668254852294922,-54.427581787109375,-1.3112844228744507,-0.0034556991886347532,0.0007283777231350541,0.9781991243362427,-0.003074266016483307,0.0009423196315765381,-0.0017061606049537659,2024-11-20 01:03:57.135382
33.712501525878906,1034.37255859375,26.071462631225586,33,24,15,69,-26.89544105529785,-54.49367904663086,-0.9973887205123901,-0.0014810138382017612,-0.00024122589093167335,0.9825856685638428,-0.00521242618560791,2.6017427444458008e-05,0.000431746244430542,2024-11-20 01:03:57.187960
33.8569450378418,1034.373046875,26.35810661315918,33,24,15,69,-27.131502151489258,-54.07487869262695,0.08069353550672531,-0.003949370235204697,-0.002412258880212903,0.9799050092697144,-0.003073953092098236,-0.0011956654489040375,0.00012633949518203735,2024-11-20 01:03:57.230064
33.73055648803711,1034.372802734375,25.308082580566406,33,24,15,69,-27.30279541015625,-53.900665283203125,0.534879744052887,-0.0014810138382017612,0.00048558515845797956,0.9808798432350159,-0.0003250539302825928,-0.0011956458911299706,-0.00048463791608810425,2024-11-20 01:03:57.271706
33.73055648803711,1034.3740234375,25.308082580566406,33,24,15,69,-27.3136043548584,-53.783851623535156,0.37166792154312134,-0.002221520757302642,-0.004100840073078871,0.9811235070228577,0.0005909651517868042,0.0003314334899187088,0.0004316568374633789,2024-11-20 01:03:57.315889
33.6944465637207,1034.37353515625,25.721454620361328,33,24,15,69,-27.502397537231445,-53.63014602661133,0.3064398467540741,-0.0012341781985014677,-0.00024122589093167335,0.9801487326622009,0.0005911961197853088,-0.0027224887162446976,-0.0007901042699813843,2024-11-20 01:03:57.357995
33.6944465637207,1034.37548828125,25.721454620361328,33,24,15,69,-28.37055015563965,-53.509090423583984,0.6935855746269226,-0.0037025348283350468,-0.0019298071274533868,0.9791739583015442,0.004562065005302429,-0.002111552283167839,-0.000790029764175415,2024-11-20 01:03:57.406300
33.6944465637207,1034.376220703125,26.312847137451172,33,24,15,69,-27.678808212280273,-53.747982025146484,1.000454306602478,-0.0014810138382017612,-0.0016885813092812896,0.9799050092697144,-0.0030733272433280945,0.0018588341772556305,0.00012633949518203735,2024-11-20 01:03:57.461059
33.73055648803711,1034.3740234375,26.116722106933594,33,24,15,69,-27.19462013244629,-53.84895324707031,0.3596339821815491,-0.0019746851176023483,-0.0009649035637266934,0.9808798432350159,-0.002462252974510193,0.000637199729681015,0.002263866364955902,2024-11-20 01:03:57.510596
33.73055648803711,1034.375244140625,26.116722106933594,33,24,15,69,-27.19367027282715,-53.74285125732422,0.23956751823425293,-0.0024683563970029354,-0.002653484931215644,0.981610894203186,0.0036462247371673584,0.0006371419876813889,-0.002317368984222412,2024-11-20 01:03:57.560986
33.6763916015625,1034.375,26.385263442993164,33,24,15,69,-27.101360321044922,-53.85357666015625,0.3434368669986725,-0.0019746851176023483,-0.0004824517818633467,0.9803923964500427,-0.001545920968055725,-0.001195407472550869,0.001958593726158142,2024-11-20 01:03:57.607372
33.6763916015625,1034.38134765625,26.385263442993164,33,24,15,69,-27.156085968017578,-53.76561737060547,-0.33547449111938477,-0.0017278495943173766,-0.0014473553746938705,0.9811235070228577,-0.003989018499851227,-0.0008898768573999405,0.0013475790619850159,2024-11-20 01:03:57.654533
33.65833282470703,1034.37939453125,25.437828063964844,33,24,15,69,-26.92479133605957,-53.869903564453125,-1.2822730541229248,-0.002715192036703229,-0.0,0.9801487326622009,-0.001545041799545288,2.6389025151729584e-05,-0.0001796931028366089,2024-11-20 01:03:57.706640
33.78472137451172,1034.376953125,25.154199600219727,33,24,15,69,-26.689538955688477,-54.40159606933594,-1.2408863306045532,-0.0012341781985014677,0.0007283777231350541,0.9803923964500427,-0.002461560070514679,0.0006373757496476173,0.0007364749908447266,2024-11-20 01:03:57.758359
33.78472137451172,1034.375732421875,25.154199600219727,33,24,15,69,-26.39354133605957,-54.672855377197266,-1.9143991470336914,-0.0024683563970029354,-0.0004824517818633467,0.9796612858772278,0.0002874433994293213,-0.002111370675265789,0.0013471022248268127,2024-11-20 01:03:57.809921
33.73055648803711,1034.37646484375,26.792600631713867,33,24,15,69,-26.54297637939453,-54.39276123046875,-1.917122721672058,-0.0012341781985014677,-0.0012061294401064515,0.9799050092697144,0.0008985698223114014,-0.0021109674125909805,-0.0007909759879112244,2024-11-20 01:03:57.855555
33.73055648803711,1034.3701171875,26.409400939941406,33,24,15,69,-26.537385940551758,-54.4168701171875,-1.2777684926986694,-0.0029620276764035225,-0.0,0.9781991243362427,0.0018146634101867676,-0.00027827732264995575,-0.002012588083744049,2024-11-20 01:03:57.903875
33.73055648803711,1034.370849609375,26.409400939941406,33,24,15,69,-26.425138473510742,-54.2708625793457,-1.2062938213348389,-0.0014810138382017612,-0.0004824517818633467,0.9801487326622009,-0.003072194755077362,-0.0002781553193926811,0.0019579529762268066,2024-11-20 01:03:57.947595
33.74861145019531,1034.37109375,25.003334045410156,33,24,15,69,-26.48769760131836,-54.3433837890625,-1.3803156614303589,-0.0029620276764035225,-0.0007236776873469353,0.982342004776001,0.0027306675910949707,-0.0018051452934741974,0.00012546032667160034,2024-11-20 01:03:57.992874
33.74861145019531,1034.373046875,25.003334045410156,33,24,15,69,-26.605857849121094,-54.282920837402344,-1.5710415840148926,-0.0024683563970029354,-0.00024122589093167335,0.9806361198425293,0.001203395426273346,-0.0021104002371430397,-0.0007907673716545105,2024-11-20 01:03:58.039857
33.80278015136719,1034.36865234375,25.86930274963379,33,24,15,69,-26.640583038330078,-54.238250732421875,-1.631151556968689,-0.0019746851176023483,0.06191210821270943,0.9789302349090576,-0.003989137709140778,-0.00027783308178186417,-0.00017983466386795044,2024-11-20 01:03:58.084864
33.80278015136719,1034.37109375,25.86930274963379,33,24,15,69,-26.437923431396484,-54.308815002441406,-1.567702293395996,-0.002715192036703229,-0.0031359365675598383,0.9840478897094727,-0.002156205475330353,0.000638510100543499,-0.001706928014755249,2024-11-20 01:03:58.129072
33.712501525878906,1034.374755859375,26.92837905883789,33,24,15,69,-26.39175796508789,-54.436222076416016,-1.4904804229736328,-0.002221520757302642,-0.0019298071274533868,0.9806361198425293,-0.0045993030071258545,0.00033299345523118973,-0.00017953664064407349,2024-11-20 01:03:58.180719
33.766666412353516,1034.37548828125,26.125774383544922,33,24,15,69,-26.541893005371094,-54.500648498535156,-1.4056099653244019,-0.0037025348283350468,-0.002171033062040806,0.9808798432350159,-0.0015442818403244019,0.0018596360459923744,0.001347362995147705,2024-11-20 01:03:58.229232
33.766666412353516,1034.37353515625,26.125774383544922,33,24,15,69,-26.56308364868164,-54.32426071166992,-1.0301152467727661,-0.0007405069191008806,0.00024279257922898978,0.9791739583015442,-0.000627368688583374,0.0006380006670951843,0.0007359310984611511,2024-11-20 01:03:58.273059
33.712501525878906,1034.37451171875,26.155946731567383,33,24,15,69,-26.7005615234375,-54.26271057128906,-0.5677843689918518,-0.003208863316103816,-0.0036183884367346764,0.9811235070228577,-0.0012381747364997864,-0.00027833040803670883,-0.0007908716797828674,2024-11-20 01:03:58.317825
33.712501525878906,1034.37353515625,26.155946731567383,33,24,15,69,-26.702184677124023,-54.34744644165039,-0.5282493233680725,-0.0004936712794005871,0.0009711703169159591,0.9794176816940308,-0.004292160272598267,0.002776065841317177,-0.00017996132373809814,2024-11-20 01:03:58.368455
33.6944465637207,1034.373291015625,26.388280868530273,33,24,15,69,-26.376384735107422,-54.280731201171875,-0.9022372364997864,-0.003208863316103816,-0.0016885813092812896,0.9796612858772278,-0.0039861127734184265,0.0009431811049580574,-0.000485152006149292,2024-11-20 01:03:58.419977
33.766666412353516,1034.372314453125,26.047325134277344,33,24,15,69,-26.459117889404297,-54.339080810546875,-0.9881730675697327,-0.0024683563970029354,-0.0012061294401064515,0.9808798432350159,-0.0009316727519035339,0.0015539368614554405,-0.000485055148601532,2024-11-20 01:03:58.468848
33.766666412353516,1034.371337890625,26.047325134277344,33,24,15,69,-26.407814025878906,-54.418365478515625,-0.9484458565711975,-0.002221520757302642,-0.0012061294401064515,0.9799050092697144,-0.0006261393427848816,2.6819296181201935e-05,0.0013473108410835266,2024-11-20 01:03:58.512843
33.78472137451172,1034.37060546875,26.101634979248047,33,24,15,69,-26.64438247680664,-54.24088668823242,-0.8907055854797363,-0.0029620276764035225,-0.0019298071274533868,0.9801487326622009,-0.003069259226322174,0.0009429305791854858,0.00043097883462905884,2024-11-20 01:03:58.564753
33.73055648803711,1034.3681640625,26.527076721191406,33,24,15,69,-26.647850036621094,-54.02469253540039,-0.756252646446228,-0.0009873425588011742,0.0009711703169159591,0.9811235070228577,-0.0033744126558303833,0.0009428514167666435,-0.00017987191677093506,2024-11-20 01:03:58.617238
33.73055648803711,1034.37158203125,26.527076721191406,33,24,15,69,-26.7434139251709,-54.01796340942383,-0.4539417326450348,-0.003949370235204697,-0.002171033062040806,0.9799050092697144,-0.000319845974445343,-0.00027870573103427887,-0.0007908716797828674,2024-11-20 01:03:58.668954
33.712501525878906,1034.37060546875,26.20120620727539,33,24,15,69,-26.730897903442383,-54.05995178222656,-0.10984225571155548,-0.0007405069191008806,0.00048558515845797956,0.9811235070228577,-0.0021518543362617493,0.001248014159500599,0.0007361844182014465,2024-11-20 01:03:58.718879
33.8569450378418,1034.365966796875,26.252500534057617,33,24,15,69,-26.929574966430664,-54.10008239746094,0.2014058232307434,-0.0024683563970029354,-0.0016885813092812896,0.9801487326622009,0.00029130280017852783,-0.0005844850093126297,-0.0010961145162582397,2024-11-20 01:03:58.768864
33.8569450378418,1034.3671875,26.252500534057617,33,24,15,69,-27.175548553466797,-54.42170715332031,0.06553301960229874,-0.0012341781985014677,0.0007283777231350541,0.9781991243362427,-0.007038436830043793,2.6605091989040375e-05,0.00012572109699249268,2024-11-20 01:03:58.812956
33.766666412353516,1034.36279296875,26.647768020629883,33,24,15,69,-27.231435775756836,-54.63809585571289,-0.3725966811180115,-0.002221520757302642,-0.0009649035637266934,0.9830730557441711,0.0018190816044807434,0.00033190473914146423,0.0010419487953186035,2024-11-20 01:03:58.858019
33.766666412353516,1034.359619140625,26.647768020629883,33,24,15,69,-27.121583938598633,-54.55183792114258,-0.9629940986633301,-0.0017278495943173766,-0.0004824517818633467,0.9813672304153442,-0.0015404745936393738,2.6416033506393433e-05,-0.001707024872303009,2024-11-20 01:03:58.905967
33.82083511352539,1034.3564453125,26.107669830322266,33,24,15,69,-27.274938583374023,-54.31000900268555,-0.9292619228363037,-0.002715192036703229,-0.0019298071274533868,0.9796612858772278,0.0030408352613449097,2.620462328195572e-05,-0.00292833149433136,2024-11-20 01:03:58.958156
